Subject	Run	TrialNum 	 CueOnset 	 TargetOnset 	 ResponseTime 	 TargetStream 	 StimCat 	 Correct 	 ResponseChar 	 CueType 	 NumSeed/StartSide 	 Context
2	1	1	16.00742382	16.25742095	1.311851853	1	2	1	49	2	2093289000	1
2	1	2	26.0074196	26.25743605	0.803399569	1	2	1	49	1	21	0
2	1	3	34.00740692	34.25742186	1.212378129	1	2	1	49	1	2	0
2	1	4	44.00740058	44.25740979	0.886069851	1	1	1	54	1	1	0
2	1	5	54.0073873	54.2573956	0.934068259	1	1	1	54	1	3	0
2	1	6	64.00739696	64.25740103	0.863780272	2	1	0	49	2	0	0
2	1	7	74.00736979	74.25736994	1.101547855	1	2	1	49	2	0	0
2	1	8	82.00736073	82.25736752	1.170463553	2	2	1	49	2	0	0
2	1	9	90.00735228	90.25735726	1.094315416	1	2	1	49	2	0	0
2	1	10	100.0073384	100.2573458	0.728894797	2	1	1	54	2	0	0
2	1	11	110.007333	110.2573358	1.361762289	2	1	1	54	1	0	0
2	1	12	118.0073206	118.2573401	1.303714417	2	1	1	54	1	0	0
2	1	13	128.0073109	128.2573165	0.796498883	2	2	0	54	1	0	0
2	1	14	136.0073103	136.2573111	0.971238085	1	1	0	49	2	0	0
2	1	15	144.0072979	144.2573062	1.285090714	1	1	1	54	1	0	0
2	1	16	152.0072832	152.2572963	0.963929877	1	1	1	54	1	0	0
2	1	17	160.0072792	160.2572821	0.887643787	2	2	1	49	2	0	0
2	1	18	168.0072644	168.2572773	1.223665852	1	1	1	54	2	0	0
2	1	19	176.0072675	176.2572694	1.000112898	2	2	0	54	2	0	0
2	1	20	186.0072481	186.2572582	1.149441213	2	2	1	49	1	0	0
2	1	21	196.0072385	196.2572489	1.681194936	1	2	1	49	2	0	3
2	1	22	206.0072339	206.2572353	1.965968991	2	2	1	49	2	0	0
2	1	23	216.0072173	216.257225	1.105665626	2	2	1	49	1	0	0
2	1	24	226.0072071	226.2572193	0.872621965	1	1	1	54	2	0	0
2	1	25	234.0072092	234.2572051	1.430224885	2	1	1	54	2	0	0
2	1	26	242.0071884	242.2571924	1.330110296	1	1	1	54	2	0	0
2	1	27	250.0071814	250.257187	1.075066547	1	2	1	49	1	0	0
2	1	28	258.0071736	258.2571825	1.301716357	2	2	1	49	2	0	0
2	1	29	268.0071663	268.2571707	1.407797655	1	2	0	54	2	0	0
2	1	30	278.007154	278.2571556	1.092612885	2	1	1	54	2	0	0
2	1	31	286.0071458	286.2571475	1.50012286	2	1	1	54	1	0	0
2	1	32	294.0071549	294.2571544	1.097174401	1	1	1	54	2	0	0
2	1	33	302.007125	302.2571287	1.02397913	2	2	1	49	2	0	0
2	1	34	312.0071132	312.2571221	1.081913802	1	1	1	54	2	0	0
2	1	35	320.007122	320.2571155	1.425761475	1	1	1	54	1	0	0
2	1	36	330.0070987	330.2571073	0.667434315	2	1	1	54	2	0	0
2	1	37	340.0070833	340.2570934	0.768269159	1	2	1	49	2	0	0
2	1	38	350.0070758	350.2570801	1.104067541	1	1	1	54	1	0	0
2	1	39	358.0070703	358.2571143	1.426797182	2	2	1	49	2	0	0
2	1	40	366.0070595	366.2570644	0.875488799	1	2	1	49	2	0	0
2	1	41	374.0070471	374.2570539	1.212636527	1	2	1	49	1	0	2
2	1	42	382.0070601	382.2570611	0	1	2	0	0	1	0	0
2	1	43	390.0070498	390.25705	0.774386198	2	2	1	49	2	0	0
2	1	44	400.0070359	400.2570243	0	2	1	0	0	1	0	0
2	1	45	408.00701	408.2569965	1.144993199	2	1	1	54	1	0	0
2	1	46	416.0070241	416.2570207	0.851749955	2	1	1	54	1	0	0
2	1	47	426.006994	426.2569908	1.020616027	1	2	1	49	2	0	0
2	1	48	436.0069813	436.2569923	0.878212245	1	2	1	49	1	0	0
2	1	49	446.006974	446.2569763	0.680255827	1	2	1	49	1	0	0
2	1	50	454.0069629	454.2569709	0.935088269	1	1	1	54	1	0	0
2	1	51	464.0069574	464.2569612	1.778823647	2	1	1	54	2	0	0
2	1	52	474.0069402	474.2569546	1.077554235	2	1	1	54	1	0	0
2	1	53	484.0069336	484.2569383	0.817353686	2	2	1	49	1	0	0
2	1	54	494.0069203	494.2569292	1.47008465	1	1	1	54	2	0	0
2	1	55	502.0069158	502.256922	1.833921975	1	1	1	54	1	0	0
2	1	56	510.0069028	510.256922	1.264828778	1	1	1	54	1	0	0
2	1	57	520.0068925	520.2569023	1.128423703	2	2	0	54	2	0	0
2	1	58	528.0068814	528.2568918	1.578578471	2	1	1	54	1	0	0
2	1	59	538.0068723	538.2568803	0.890346405	2	2	1	49	1	0	0
2	1	60	546.0068633	546.2568746	0.790205554	2	2	1	49	1	0	0
2	2	1	14.00714882	14.2571532	0.795276622	1	2	1	49	2	2139192000	1
2	2	2	22.00715546	22.25714384	0.750113351	2	2	1	49	2	21	0
2	2	3	32.00714671	32.2571381	1.103903929	1	1	1	54	2	2	0
2	2	4	42.00712739	42.2571215	1.00786153	2	2	1	49	2	1	0
2	2	5	50.00712014	50.25711305	1.262702123	2	1	1	54	1	3	0
2	2	6	60.00710958	60.25710339	0.93144141	2	2	1	49	1	0	0
2	2	7	68.00710867	68.25709765	1.283340789	1	1	1	54	2	0	0
2	2	8	78.00708935	78.25707984	1.152150171	1	1	1	54	1	0	0
2	2	9	86.00707788	86.25707562	0	2	2	0	0	2	0	0
2	2	10	96.00705102	96.25706354	1.598774298	2	2	1	49	1	0	0
2	2	11	104.0070525	104.2570533	0.882528344	2	1	1	54	1	0	0
2	2	12	112.0070549	112.2570457	1.528322397	2	1	1	54	1	0	0
2	2	13	120.0070377	120.2570394	1.269295508	1	1	1	54	2	0	0
2	2	14	130.0070248	130.2570252	1.058047873	2	2	1	49	2	0	0
2	2	15	140.0070003	140.2570104	0.871811753	2	1	1	54	1	0	0
2	2	16	148.0070048	148.2570044	1.410618001	2	1	0	49	1	0	0
2	2	17	156.0069967	156.256992	1.364481812	1	2	1	49	2	0	0
2	2	18	166.0069855	166.2570083	1.37621811	1	1	1	54	1	0	0
2	2	19	176.0069743	176.2569724	0	1	2	0	0	1	0	0
2	2	20	186.0069466	186.2569534	0.971995771	2	2	1	49	2	0	0
2	2	21	194.0069632	194.2569485	0.913835001	1	2	1	49	2	0	3
2	2	22	202.0069411	202.2569407	0.882545248	2	2	1	49	2	0	0
2	2	23	212.0069327	212.2569289	1.187407364	2	1	1	54	1	0	0
2	2	24	222.0069185	222.2569114	1.044275479	1	2	1	49	2	0	0
2	2	25	232.0069091	232.2569048	0.864957856	2	1	1	54	2	0	0
2	2	26	242.0069061	242.2568897	1.142730402	1	2	1	49	2	0	0
2	2	27	250.0068895	250.2568873	1.170644976	1	1	1	54	1	0	0
2	2	28	260.0068832	260.2568676	0.862387155	2	1	1	54	2	0	0
2	2	29	270.0068672	270.2568604	1.143317835	2	2	1	49	1	0	0
2	2	30	278.0068675	278.2568583	0	1	2	0	0	2	0	0
2	2	31	286.0068364	286.2568402	1.567990174	2	1	1	54	2	0	0
2	2	32	296.006846	296.2568266	1.440842161	1	1	0	49	2	0	0
2	2	33	304.0068361	304.2568513	0.964446071	2	1	1	54	2	0	0
2	2	34	312.0068177	312.256816	1.088398214	1	2	1	49	2	0	0
2	2	35	320.0068074	320.2568054	0.851240101	1	1	1	54	1	0	0
2	2	36	330.0068047	330.2567916	0.000190176	2	1	0	49	2	0	0
2	2	37	340.0067996	340.2567837	0.951778512	1	2	1	49	2	0	0
2	2	38	348.0067793	348.2567768	0.82877393	2	1	1	54	2	0	0
2	2	39	358.0067712	358.2567662	1.022508131	2	2	0	54	1	0	0
2	2	40	366.0067555	366.2567556	0	1	2	0	0	2	0	0
2	2	41	376.0067383	376.2567393	0.863242345	1	2	1	49	1	0	2
2	2	42	386.0067307	386.2567291	0	1	2	0	0	1	0	0
2	2	43	396.0067087	396.2567185	0	2	1	0	0	2	0	0
2	2	44	404.006706	404.2567098	0.866400782	2	2	1	49	1	0	0
2	2	45	414.0067135	414.2567064	1.267324315	1	1	1	54	2	0	0
2	2	46	424.0066915	424.2566805	0.862273049	1	2	1	49	1	0	0
2	2	47	432.006683	432.256682	1.252100242	1	1	1	54	1	0	0
2	2	48	440.0066622	440.256675	1.114905784	1	1	1	54	1	0	0
2	2	49	448.0066613	448.256659	0	1	2	0	0	1	0	0
2	2	50	458.0066477	458.2566446	1.392585656	1	2	1	49	1	0	0
2	2	51	466.006642	466.2566421	1.367285253	2	1	1	54	2	0	0
2	2	52	474.0066338	474.2566331	0.888221259	2	1	1	54	1	0	0
2	2	53	484.006619	484.2566237	0.709061513	2	1	1	54	1	0	0
2	2	54	492.0066423	492.2566132	0	2	2	0	0	1	0	0
2	2	55	500.0066	500.2565978	1.135619918	1	1	1	54	2	0	0
2	2	56	510.0065943	510.2565902	0	1	1	0	0	1	0	0
2	2	57	520.0065644	520.2565787	1.201314692	2	2	1	49	2	0	0
2	2	58	530.0065729	530.2565585	1.137154309	2	1	1	54	1	0	0
2	2	59	538.0065644	538.256564	0.948887529	2	2	1	49	1	0	0
2	2	60	546.0065554	546.2565501	0	2	2	0	0	1	0	0
2	3	1	13.99378817	14.24379949	1.024634182	1	1	1	54	2	2114913000	1
2	3	2	21.99378817	22.24378863	1.451487511	1	1	1	54	1	21	0
2	3	3	29.99378908	30.24377504	1.026296867	1	1	1	54	1	2	0
2	3	4	37.99377731	38.24377716	1.399048937	2	2	1	49	2	1	0
2	3	5	47.99374863	48.24377414	0	2	1	0	0	1	3	0
2	3	6	55.99374923	56.24374938	1.027679721	2	1	1	54	1	0	0
2	3	7	65.9937438	66.24373218	1.056389716	1	2	1	49	2	0	0
2	3	8	75.99371754	76.24373459	1.672250306	2	1	1	54	2	0	0
2	3	9	83.9937109	84.24372856	0	1	1	0	0	2	0	0
2	3	10	93.99369188	94.24368871	1.433931815	1	2	1	49	1	0	0
2	3	11	103.9937003	104.2437029	1.17071682	2	2	1	49	2	0	0
2	3	12	111.9936717	112.2436872	1.121673649	1	2	1	49	2	0	0
2	3	13	121.9936638	122.2436718	0.809493968	1	2	1	49	1	0	0
2	3	14	131.9936517	132.2436615	1.475157228	1	1	1	54	1	0	0
2	3	15	139.9936538	140.2436356	0.944120138	1	1	1	54	1	0	0
2	3	16	147.9936454	148.2436449	1.006844539	2	2	1	49	2	0	0
2	3	17	155.9936351	156.2436232	1.054607491	2	2	1	49	1	0	0
2	3	18	165.9936215	166.2436262	0.703588357	2	2	1	49	1	0	0
2	3	19	175.9935962	176.2436057	0.949331273	1	1	1	54	2	0	0
2	3	20	185.9936037	186.2435828	0.929213328	2	2	1	49	2	0	0
2	3	21	193.9935874	194.2435867	1.65301502	2	1	1	54	1	0	2
2	3	22	201.9935796	202.24358	0.819807264	2	1	1	54	1	0	0
2	3	23	211.9935621	212.2435677	0.767710403	2	1	1	54	1	0	0
2	3	24	219.9935437	220.2435595	0	2	2	0	0	1	0	0
2	3	25	227.9935274	228.2435384	0.762282225	2	1	1	54	1	0	0
2	3	26	237.9935201	238.243536	0.840072823	2	1	1	54	1	0	0
2	3	27	247.9935089	248.2435248	0	2	2	0	0	1	0	0
2	3	28	257.9935011	258.243497	0.911769926	2	1	1	54	1	0	0
2	3	29	265.9934999	266.2434955	0.903612869	1	1	1	54	2	0	0
2	3	30	273.9934966	274.2434756	1.25013418	1	2	0	54	1	0	0
2	3	31	283.9934803	284.243465	1.585251549	1	2	1	49	1	0	0
2	3	32	291.9934622	292.2434686	1.138113945	2	2	1	49	2	0	0
2	3	33	301.9934419	302.2434626	0.892818396	2	2	1	49	1	0	0
2	3	34	309.9934377	310.2434517	1.461654704	2	1	1	54	1	0	0
2	3	35	319.9934271	320.2434288	1.803313537	1	1	1	54	2	0	0
2	3	36	329.9934111	330.2434216	1.002266721	1	2	1	49	1	0	0
2	3	37	337.9934175	338.2434022	0	2	2	0	0	2	0	0
2	3	38	345.9934012	346.2434013	0	2	2	0	0	1	0	0
2	3	39	355.9933807	356.243395	1.478716545	1	1	1	54	2	0	0
2	3	40	365.9933719	366.243388	1.095656915	1	2	1	49	1	0	0
2	3	41	375.9933631	376.2433576	1.142426421	2	1	1	54	2	0	3
2	3	42	383.9933598	384.2433506	1.000111993	1	1	0	49	2	0	0
2	3	43	393.9933375	394.2433506	0.95101841	2	1	1	54	2	0	0
2	3	44	401.9933429	402.2433352	0	2	2	0	0	1	0	0
2	3	45	409.9933191	410.2433307	1.218788884	1	1	1	54	2	0	0
2	3	46	417.9933245	418.2433225	1.069600334	2	1	1	54	2	0	0
2	3	47	425.9933028	426.2433153	0	2	2	0	0	1	0	0
2	3	48	435.9933025	436.2432942	0	1	1	0	0	2	0	0
2	3	49	443.9932973	444.2432745	1.181032531	2	1	1	54	2	0	0
2	3	50	453.9932702	454.2432848	0	1	2	0	0	2	0	0
2	3	51	461.9932756	462.2432598	1.508687439	1	2	1	49	1	0	0
2	3	52	471.9932593	472.2432682	0.85544632	2	2	1	49	2	0	0
2	3	53	479.9932524	480.2432561	0.923298842	2	2	1	49	1	0	0
2	3	54	489.9932433	490.2432927	1.940111341	1	1	1	54	2	0	0
2	3	55	499.993233	500.2432169	1.329986531	2	1	1	54	2	0	0
2	3	56	509.9932077	510.243209	1.103616249	1	2	1	49	2	0	0
2	3	57	519.9932104	520.2432124	0.761552612	2	2	1	49	2	0	0
2	3	58	527.9931838	528.2432006	0	1	2	0	0	2	0	0
2	3	59	535.9931745	536.2431876	0	1	1	0	0	1	0	0
2	3	60	545.993173	546.2431629	1.001958817	2	2	1	49	2	0	0
2	4	1	13.99349385	14.24349099	0.951916163	1	1	1	54	2	2105147000	1
2	4	2	23.99349355	24.24347529	0.861601092	1	1	1	54	1	21	0
2	4	3	33.99346669	34.24348102	0.916504413	2	2	1	49	2	2	0
2	4	4	41.99345582	42.24346895	0.940349514	1	1	1	54	2	1	0
2	4	5	49.99344556	50.2434605	0	1	2	0	0	1	3	0
2	4	6	57.99344616	58.24344329	0.917946735	1	2	1	49	1	0	0
2	4	7	67.99343861	68.24342307	0.645745452	1	2	1	49	1	0	0
2	4	8	77.99341416	78.24343061	1.216358249	2	1	1	54	2	0	0
2	4	9	87.99341567	88.24339711	1.302416689	2	2	1	49	1	0	0
2	4	10	97.99340299	98.24340556	1.000097805	1	1	1	54	2	0	0
2	4	11	105.9933891	106.2433772	1.087949639	2	1	1	54	2	0	0
2	4	12	113.993365	114.2433787	0	2	1	0	0	1	0	0
2	4	13	121.9933695	122.2433705	0.963756304	1	2	1	49	2	0	0
2	4	14	129.9933471	130.2433615	0.922596699	2	2	1	49	2	0	0
2	4	15	139.9933474	140.2433349	0.966423905	1	2	1	49	2	0	0
2	4	16	147.9933284	148.2433437	1.109165778	2	2	1	49	2	0	0
2	4	17	155.9933308	156.2433153	1.405008401	2	1	1	54	1	0	0
2	4	18	165.9933206	166.2433192	1.62489578	2	2	1	49	1	0	0
2	4	19	175.993294	176.2432887	1.804568399	2	1	1	54	1	0	0
2	4	20	185.9932937	186.243296	0	2	1	0	0	1	0	0
2	4	21	195.9932759	196.2432788	0	2	1	0	0	1	0	2
2	4	22	205.9932638	206.2432495	0	1	1	0	0	2	0	0
2	4	23	215.9932469	216.2432498	1.000106861	1	2	1	49	1	0	0
2	4	24	223.9932451	224.2432335	0.882757763	1	1	1	54	1	0	0
2	4	25	231.9932333	232.243238	0.750087089	1	2	1	49	1	0	0
2	4	26	239.9932143	240.2432223	0.623432328	1	2	1	49	1	0	0
2	4	27	247.9932041	248.2432172	0	1	2	0	0	1	0	0
2	4	28	255.9932016	256.2432057	0.827993301	1	1	1	54	1	0	0
2	4	29	265.9931829	266.2431994	1.920880281	2	2	1	49	2	0	0
2	4	30	273.9931884	274.2431894	1.000098409	2	1	1	54	1	0	0
2	4	31	283.9931721	284.2431592	0	1	1	0	0	2	0	0
2	4	32	293.9931555	294.2431583	1.072216618	1	1	1	54	1	0	0
2	4	33	301.9931367	302.2431508	0.977110611	1	2	1	49	1	0	0
2	4	34	309.9931268	310.2431447	1.000099012	1	2	1	49	1	0	0
2	4	35	317.9931337	318.2431357	1.0187526	1	2	1	49	1	0	0
2	4	36	327.9931207	328.243104	1.216552953	2	2	1	49	2	0	0
2	4	37	337.993106	338.2430992	0	2	1	0	0	1	0	0
2	4	38	347.993096	348.2430904	0.716306026	1	2	1	49	2	0	0
2	4	39	357.9930718	358.2430844	1.014079392	1	1	1	54	1	0	0
2	4	40	365.9930785	366.2430605	0.892942162	1	1	1	54	1	0	0
2	4	41	375.9930643	376.2430518	0.976716976	1	1	1	54	1	0	3
2	4	42	383.9930534	384.2430584	1.503572298	2	1	1	54	2	0	0
2	4	43	393.9930453	394.2430472	0.644368032	1	2	1	49	2	0	0
2	4	44	403.9930175	404.2430288	0.750100975	2	1	0	49	2	0	0
2	4	45	413.9930208	414.2430098	0	1	2	0	0	2	0	0
2	4	46	421.9929846	422.2430005	0	2	2	0	0	2	0	0
2	4	47	431.9929937	432.2429823	0	1	2	0	0	2	0	0
2	4	48	441.9929834	442.2429712	1.600351555	1	1	1	54	1	0	0
2	4	49	451.9929577	452.2429808	1.105064307	2	2	1	49	2	0	0
2	4	50	459.9929677	460.2429679	0.934065845	2	1	1	54	1	0	0
2	4	51	467.9929583	468.2429413	1.279900408	1	1	0	49	2	0	0
2	4	52	475.9929469	476.2429322	0	2	1	0	0	2	0	0
2	4	53	483.9929194	484.2429343	0.880472929	1	2	1	49	2	0	0
2	4	54	493.9929122	494.2429277	0	2	2	0	0	2	0	0
2	4	55	501.9929152	502.2429153	0.964239895	2	2	1	49	1	0	0
2	4	56	509.9928928	510.2429063	0	1	2	0	0	2	0	0
2	4	57	519.9928919	520.2428924	0	2	1	0	0	2	0	0
2	4	58	527.9928829	528.2428827	0.750100371	1	2	1	49	2	0	0
2	4	59	535.9928602	536.2428746	0	1	1	0	0	1	0	0
2	4	60	545.9928491	546.2428604	0	2	1	0	0	2	0	0
6	1	1	14.00152745	14.25151862	1.00405107	2	1	1	54	2	2101481000	2
6	1	2	22.00152262	22.25153885	0.944957972	2	2	1	49	1	20	0
6	1	3	32.00155251	32.25155726	1.343674429	2	1	0	49	1	3	0
6	1	4	42.00157605	42.25156481	1.080585202	1	2	1	49	2	2	0
6	1	5	50.00159054	50.25159107	1.295331157	2	2	1	49	2	1	0
6	1	6	58.00160654	58.25160616	1.054182005	1	1	1	54	2	0	0
6	1	7	66.00162314	66.25162307	0.790012392	2	1	1	54	2	0	0
6	1	8	74.00164096	74.25163635	0.80171129	1	2	1	49	2	0	0
6	1	9	82.00165061	82.25165356	1.802835749	1	2	0	54	1	0	0
6	1	10	90.00166692	90.25166895	1.588547728	1	1	1	54	1	0	0
6	1	11	98.00166963	98.25168374	0.860452712	1	2	1	49	1	0	0
6	1	12	108.0016998	108.2517037	1.679158573	1	1	1	54	1	0	0
6	1	13	116.0017161	116.2517182	1.279968787	2	1	1	54	2	0	0
6	1	14	126.0017397	126.2517269	0.900799498	1	1	1	54	2	0	0
6	1	15	136.0017542	136.2517505	0.942584384	2	1	1	54	2	0	0
6	1	16	146.0017729	146.2517701	1.500110333	2	2	1	49	1	0	0
6	1	17	156.0017907	156.2518308	1.080042141	2	2	1	49	1	0	0
6	1	18	166.0018109	166.2518117	0.911004149	2	2	1	49	1	0	0
6	1	19	176.0018272	176.2518268	0.850868097	2	2	1	49	1	0	0
6	1	20	186.0018541	186.2518504	1.080661876	1	1	1	54	2	0	0
6	1	21	196.0018692	196.2518685	1.136383711	1	1	1	54	1	0	3
6	1	22	206.0018873	206.2518863	1.030228167	1	2	1	49	1	0	0
6	1	23	214.0019021	214.2519035	0.910098545	2	1	1	54	2	0	0
6	1	24	224.0019211	224.2519258	0.914888286	2	2	1	49	1	0	0
6	1	25	234.0019428	234.2519437	0.862476435	2	2	1	49	1	0	0
6	1	26	244.0019552	244.2519627	0.781408849	1	1	1	54	2	0	0
6	1	27	252.0019739	252.2519705	1.076290222	1	1	1	54	1	0	0
6	1	28	262.0019957	262.2519944	1.210049793	1	2	1	49	1	0	0
6	1	29	270.0020098	270.2520119	0.941766019	2	2	1	49	2	0	0
6	1	30	280.0020279	280.2520291	1.098680384	2	1	1	54	1	0	0
6	1	31	288.0020325	288.252039	1.139519517	2	2	1	49	1	0	0
6	1	32	296.0020539	296.2520596	1.000112295	2	1	1	54	1	0	0
6	1	33	306.0020723	306.2520762	0.89826773	2	1	1	54	1	0	0
6	1	34	314.0020913	314.2520907	0.872001884	2	1	1	54	1	0	0
6	1	35	324.0021101	324.2521121	0.758912732	2	1	1	54	1	0	0
6	1	36	332.002197	332.2521299	1.17361069	1	2	1	49	2	0	0
6	1	37	340.0021396	340.2521456	1.041550636	1	2	0	54	1	0	0
6	1	38	348.0021568	348.2521583	0.889338169	1	2	1	49	1	0	0
6	1	39	356.002171	356.2521698	1.709250899	2	2	1	49	2	0	0
6	1	40	366.0021722	366.2521924	1.342912514	2	1	1	54	1	0	0
6	1	41	374.0022067	374.2522011	1.830805339	1	1	0	49	2	0	1
6	1	42	382.0022076	382.2522223	0.978705016	2	2	1	49	2	0	0
6	1	43	390.0022332	390.2522359	1.080497358	1	1	1	54	2	0	0
6	1	44	398.002254	398.2522549	0.827221863	2	2	1	49	2	0	0
6	1	45	406.0022628	406.2522676	1.073214186	1	2	1	49	2	0	0
6	1	46	416.0022842	416.2522872	1.163973248	1	1	1	54	1	0	0
6	1	47	426.0023011	426.2522953	0.960764692	2	1	1	54	2	0	0
6	1	48	436.0023217	436.2523222	0.899547651	1	2	1	49	2	0	0
6	1	49	444.0023443	444.2523415	1.108393292	2	2	1	49	2	0	0
6	1	50	452.0023513	452.2523512	0.872298922	1	1	1	54	2	0	0
6	1	51	462.0023691	462.2523753	0.929026279	1	2	1	49	1	0	0
6	1	52	472.0023839	472.2523877	1.103782558	2	1	1	54	2	0	0
6	1	53	482.0024041	482.25241	1.750110559	2	1	1	54	1	0	0
6	1	54	492.002421	492.2524315	0.935440071	1	1	1	54	2	0	0
6	1	55	502.0024475	502.2524502	0.925283115	1	1	1	54	1	0	0
6	1	56	512.0024702	512.2524701	0.867070566	2	2	1	49	2	0	0
6	1	57	520.0024835	520.2524846	1.064689732	2	2	1	49	1	0	0
6	1	58	528.0024958	528.2524909	1.219662783	1	2	1	49	2	0	0
6	1	59	538.0025179	538.2525196	1.101547829	2	2	1	49	2	0	0
6	1	60	546.0025315	546.2525314	0.776186229	1	1	1	54	2	0	0
6	2	1	16.00029342	16.25029425	0.90587058	1	1	1	54	2	2075645000	2
6	2	2	24.00031334	24.25031326	1.008614712	1	2	1	49	1	21	0
6	2	3	32.00032873	32.25032745	0.527446905	2	1	1	54	2	3	0
6	2	4	40.00034081	40.25034466	1.081269235	2	1	1	54	1	2	0
6	2	5	50.00035922	50.25036398	0.811181195	1	1	1	54	2	1	0
6	2	6	60.00037583	60.25037847	0.797047126	1	1	1	54	1	0	0
6	2	7	70.00040148	70.25039537	1.043796837	1	1	1	54	1	0	0
6	2	8	80.00041718	80.25041922	1.750094862	2	1	1	54	2	0	0
6	2	9	88.00042926	88.25043069	1.679321883	2	1	0	49	1	0	0
6	2	10	96.00044254	96.25044095	0.886119953	1	2	1	49	2	0	0
6	2	11	104.0004564	104.2504606	1.206002949	2	2	1	49	2	0	0
6	2	12	114.000477	114.250476	0.670689965	1	2	1	49	2	0	0
6	2	13	122.0004902	122.250495	1.21371417	1	2	1	49	1	0	0
6	2	14	130.0005056	130.2505074	0.966468188	2	2	1	49	2	0	0
6	2	15	138.0005198	138.2505209	0.831306138	2	1	1	54	1	0	0
6	2	16	148.0005397	148.2505369	0.851134647	1	2	1	49	2	0	0
6	2	17	158.0005521	158.2505578	0.712912861	2	1	1	54	2	0	0
6	2	18	168.0005678	168.2505765	0.838707039	2	2	1	49	1	0	0
6	2	19	176.0005829	176.2505967	1.500143236	2	2	1	49	1	0	0
6	2	20	186.0006068	186.2506094	0.753438957	2	2	1	49	1	0	0
6	2	21	196.0006237	196.2506254	0.918261059	2	1	1	54	1	0	3
6	2	22	206.0006412	206.2506263	0.958989406	2	2	1	49	1	0	0
6	2	23	214.0006608	214.2506586	0.879889999	2	1	1	54	1	0	0
6	2	24	224.0006777	224.2506785	0.868462782	2	1	1	54	1	0	0
6	2	25	234.0006964	234.2506966	1.166417776	1	1	1	54	2	0	0
6	2	26	242.0006925	242.2507111	0.882257249	1	1	1	54	1	0	0
6	2	27	250.0007263	250.2507232	1.290180985	2	1	1	54	2	0	0
6	2	28	260.0007465	260.2507489	1.031826559	2	1	1	54	1	0	0
6	2	29	268.000761	268.2507567	0.71468211	2	1	1	54	1	0	0
6	2	30	276.0007746	276.2507724	1.000141878	1	2	1	49	2	0	0
6	2	31	284.0007719	284.2507836	1.101347388	1	2	1	49	1	0	0
6	2	32	294.0008018	294.2507908	1.217232141	2	2	1	49	2	0	0
6	2	33	304.0008286	304.2508249	1.060949285	2	2	1	49	1	0	0
6	2	34	312.0008431	312.2508436	1.074778467	2	2	1	49	1	0	0
6	2	35	322.0008585	322.2508627	0.897619015	2	1	1	54	1	0	0
6	2	36	330.0008727	330.2508769	1.216631122	1	2	1	49	2	0	0
6	2	37	340.0008941	340.2508723	1.041303406	1	1	1	54	1	0	0
6	2	38	350.0009071	350.2509125	1.401928333	1	2	1	49	1	0	0
6	2	39	358.0009282	358.2509288	0.777714285	1	2	0	54	1	0	0
6	2	40	366.0009412	366.2509408	0.823718381	1	2	1	49	1	0	0
6	2	41	374.0009536	374.2509568	0.626551413	2	1	1	54	2	0	1
6	2	42	382.000969	382.2509695	1.187476398	1	2	1	49	2	0	0
6	2	43	392.0009892	392.2509894	0.77024486	2	1	1	54	2	0	0
6	2	44	402.0010088	402.2510057	0.831119885	2	1	1	54	1	0	0
6	2	45	412.0010239	412.2510263	0.821873665	1	1	0	49	2	0	0
6	2	46	420.0010408	420.2510396	1.250102258	2	1	1	54	2	0	0
6	2	47	428.0010583	428.2510547	0.919469437	1	1	1	54	2	0	0
6	2	48	436.0010689	436.2510719	0.870270066	2	1	1	54	2	0	0
6	2	49	444.0010671	444.2510879	0.686167045	2	1	1	54	1	0	0
6	2	50	452.0010997	452.2510987	0.906151619	1	2	1	49	2	0	0
6	2	51	462.0011181	462.251115	0.723814828	2	2	1	49	2	0	0
6	2	52	470.0011118	470.251138	0.784679892	1	2	1	49	2	0	0
6	2	53	480.0011501	480.2511494	1.905389402	1	2	1	49	1	0	0
6	2	54	490.001167	490.2511682	0.950354469	2	2	1	49	2	0	0
6	2	55	498.001183	498.2511832	0.893061712	2	1	0	49	1	0	0
6	2	56	508.0012014	508.2512032	1.826924824	1	2	1	49	2	0	0
6	2	57	518.0012256	518.251221	0.941889785	1	1	1	54	1	0	0
6	2	58	526.0012371	526.2512349	1.000510157	2	2	1	49	2	0	0
6	2	59	536.0012404	536.2512569	0.84534542	1	2	1	49	2	0	0
6	2	60	546.0012817	546.251272	0.712093289	2	2	1	49	2	0	0
6	3	1	16.00812297	16.25809633	0.955728325	2	2	1	49	1	2110590000	2
6	3	2	26.00814259	26.25813104	1.642200558	2	1	1	54	1	21	0
6	3	3	34.00814953	34.25814584	0	2	2	0	0	1	3	0
6	3	4	42.00816251	42.25815338	0.824059492	1	1	1	54	2	2	0
6	3	5	50.00816704	50.25817059	0.761024299	1	2	1	49	1	1	0
6	3	6	58.00818485	58.25824304	0.769548451	2	2	1	49	2	0	0
6	3	7	68.00821534	68.25821466	0.766665912	2	1	1	54	1	0	0
6	3	8	78.00823043	78.2582367	0.819315937	1	2	1	49	2	0	0
6	3	9	88.00825217	88.2582533	0.815188796	2	1	1	54	2	0	0
6	3	10	98.00826394	98.2582693	0.673912709	1	1	1	54	2	0	0
6	3	11	106.0082848	106.2582856	0.644741986	2	1	1	54	2	0	0
6	3	12	116.0083035	116.2582971	0.971570665	1	2	1	49	2	0	0
6	3	13	124.0083153	124.2583176	1.048286521	1	2	0	54	1	0	0
6	3	14	134.0083297	134.258368	1.000104748	1	2	1	49	1	0	0
6	3	15	142.0083436	142.2583602	1.097168024	2	2	1	49	2	0	0
6	3	16	152.0083436	152.2583617	0.969971066	2	1	1	54	1	0	0
6	3	17	160.0083693	160.2583743	0.894674594	2	1	1	54	1	0	0
6	3	18	168.0083901	168.2584	1.692519557	1	2	1	49	2	0	0
6	3	19	176.0084016	176.2584082	0.776455193	2	1	1	54	2	0	0
6	3	20	186.0084131	186.2584254	1.578216291	2	1	1	54	1	0	0
6	3	21	194.0084342	194.2584405	0.81298697	2	2	1	49	1	0	1
6	3	22	202.0084541	202.2584522	0.847831304	1	1	1	54	2	0	0
6	3	23	210.0084671	210.2584658	1.450653771	2	2	1	49	2	0	0
6	3	24	220.0084849	220.2584824	0.856634382	1	1	1	54	2	0	0
6	3	25	228.0084997	228.2585002	1.142203728	2	2	1	49	2	0	0
6	3	26	238.0085169	238.2585144	0.675163952	1	2	1	49	2	0	0
6	3	27	246.0085269	246.2585316	1.160895401	1	1	1	54	1	0	0
6	3	28	256.0085492	256.2585473	0.65872995	2	2	1	49	2	0	0
6	3	29	266.0085643	266.2585848	1.042520236	2	1	1	54	1	0	0
6	3	30	276.0085854	276.2585582	0.898343499	1	1	1	54	2	0	0
6	3	31	286.0086005	286.2585992	0.750117804	2	1	1	54	2	0	0
6	3	32	294.0086165	294.2586122	0.904070239	1	2	1	49	2	0	0
6	3	33	304.0086337	304.2586358	1.381806409	1	2	1	49	1	0	0
6	3	34	314.0086509	314.2586545	1.53353317	2	2	1	49	2	0	0
6	3	35	322.0086654	322.2586666	1.750111163	1	2	1	49	2	0	0
6	3	36	332.0086899	332.2586877	1.336199571	1	1	1	54	1	0	0
6	3	37	340.0086932	340.2586943	0.622149271	2	1	1	54	2	0	0
6	3	38	348.0087092	348.2587121	0.784886067	1	2	1	49	2	0	0
6	3	39	358.0087273	358.2587318	0.872674748	2	1	1	54	2	0	0
6	3	40	366.008727	366.2587435	0.601692575	1	1	1	54	2	0	0
6	3	41	374.0087415	374.2587535	0.766359818	1	2	1	49	1	0	3
6	3	42	384.0087699	384.2587716	0.944266996	2	1	1	54	2	0	0
6	3	43	392.0087895	392.2421106	1.127669986	2	2	1	49	1	0	0
6	3	44	402.0088058	402.258806	0.000192592	1	1	0	49	2	0	0
6	3	45	412.008813	412.2588229	0.941621122	1	2	1	49	1	0	0
6	3	46	420.0088396	420.2588425	1.069526263	1	2	1	49	1	0	0
6	3	47	428.0088502	428.2588573	0.817470315	1	1	1	54	1	0	0
6	3	48	437.9922595	438.2422627	0.934673628	2	2	1	49	2	0	0
6	3	49	447.9922281	448.2422277	1.185574327	2	1	1	54	1	0	0
6	3	50	457.9922444	458.2422241	0.642301684	2	1	1	54	1	0	0
6	3	51	467.9922601	468.2422582	0.834032913	2	1	1	54	1	0	0
6	3	52	477.9922858	478.2422561	0.830937557	2	2	1	49	1	0	0
6	3	53	485.9922882	486.2423017	0.870811618	2	2	1	49	1	0	0
6	3	54	493.9923063	494.2422975	1.074832199	1	2	1	49	2	0	0
6	3	55	503.9923141	504.2423168	1.190433196	1	2	1	49	1	0	0
6	3	56	513.9923443	514.24234	0.775290284	1	1	1	54	1	0	0
6	3	57	521.9923624	522.2423584	0.910108507	1	1	1	54	1	0	0
6	3	58	529.9923748	530.2423756	0.957880041	2	2	1	49	2	0	0
6	3	59	537.9923905	538.2423947	0.662852261	2	1	1	54	1	0	0
6	3	60	545.9924092	546.242407	0.719696743	2	1	1	54	1	0	0
6	4	1	13.99641652	14.24642701	0.728507368	1	1	1	54	1	2046783000	3
6	4	2	21.99643856	22.24644241	0.867510086	2	2	1	49	2	20	0
6	4	3	29.99645818	30.24645931	0.672194476	2	2	1	49	1	3	0
6	4	4	37.99647297	38.24649463	0.500079844	1	2	0	54	2	2	0
6	4	5	47.99648595	48.24649131	0.944957067	1	1	1	54	1	1	0
6	4	6	55.99649954	56.24650339	0.750140746	1	2	1	49	1	0	0
6	4	7	65.99651916	66.24651637	0.816637763	1	2	1	49	1	0	0
6	4	8	73.99652972	74.24653508	0.771519649	1	1	1	54	1	0	0
6	4	9	83.99655478	84.2465535	0.902232768	1	1	1	54	1	0	0
6	4	10	93.99657017	94.2465695	0.752031346	2	1	1	54	2	0	0
6	4	11	101.9965798	102.2465843	0.88684172	2	1	1	54	1	0	0
6	4	12	111.9965949	112.2465991	1.517663662	1	2	1	49	2	0	0
6	4	13	121.9966179	122.2466211	1.520609291	1	1	1	54	1	0	0
6	4	14	131.996629	132.2466335	1.176319352	1	2	1	49	1	0	0
6	4	15	141.9966532	142.2466498	0.914136635	1	1	1	54	1	0	0
6	4	16	151.9966683	152.2466673	0.626917579	1	1	1	54	1	0	0
6	4	17	159.9966846	160.2466869	1.250862664	2	2	1	49	2	0	0
6	4	18	167.9966951	168.2467035	1.924510936	2	1	1	54	1	0	0
6	4	19	175.9967142	176.2467002	1.468390032	2	2	1	49	1	0	0
6	4	20	185.9967247	186.2467292	1.023310557	2	2	1	49	1	0	0
6	4	21	195.9967495	196.2467473	1.116071609	1	1	1	54	2	0	2
6	4	22	205.9967604	206.2467663	0.8708249	2	2	1	49	2	0	0
6	4	23	215.9967827	216.2467808	0.844583807	1	2	1	49	2	0	0
6	4	24	223.9967987	224.2467938	0.963473959	1	2	1	49	1	0	0
6	4	25	231.9968077	232.2468158	1.326380405	1	1	1	54	1	0	0
6	4	26	239.996805	240.2468249	1.01521204	1	2	1	49	1	0	0
6	4	27	249.9968434	250.24684	0.909918632	1	2	1	49	1	0	0
6	4	28	257.9968615	258.2468596	0.750138029	1	1	1	54	1	0	0
6	4	29	265.9968714	266.2468744	0.912622766	2	1	1	54	2	0	0
6	4	30	275.9968911	276.2468889	0.82852714	1	1	1	54	2	0	0
6	4	31	285.9969089	286.2469061	0.60933346	2	1	1	54	2	0	0
6	4	32	293.9969225	294.2469248	1.431105094	2	2	1	49	1	0	0
6	4	33	303.9969366	304.2469332	1.200971713	1	1	1	54	2	0	0
6	4	34	311.9969448	312.2469511	1.227753754	1	2	1	49	1	0	0
6	4	35	319.9969502	320.2469686	1.398588767	2	1	1	54	2	0	0
6	4	36	327.9969816	328.2469797	0.788354532	1	1	1	54	2	0	0
6	4	37	335.9969931	336.2469988	0.935282798	1	2	1	49	1	0	0
6	4	38	345.9970118	346.2470129	0.720957043	2	1	1	54	2	0	0
6	4	39	355.9970239	356.2470326	1.131758487	2	2	1	49	1	0	0
6	4	40	365.9970544	366.2470531	0.849450826	2	2	1	49	1	0	0
6	4	41	373.9970664	374.2470658	1.260398073	2	1	1	54	1	0	1
6	4	42	383.997083	384.2470839	0.769082366	1	2	1	49	2	0	0
6	4	43	391.9970945	392.2470981	0.750140746	2	2	1	49	2	0	0
6	4	44	401.9971153	402.2471198	0.894923333	1	2	1	49	2	0	0
6	4	45	409.9971301	410.2471313	0.795762677	2	1	1	54	2	0	0
6	4	46	417.9971265	418.2471427	0.729655674	1	2	1	49	2	0	0
6	4	47	427.9971615	428.247147	0.942357077	2	2	1	49	2	0	0
6	4	48	437.9971833	438.2472016	1.511084446	1	1	1	54	2	0	0
6	4	49	447.9972014	448.2471944	0.64894731	1	1	1	54	1	0	0
6	4	50	457.9972165	458.2472146	0.869720063	2	1	1	54	2	0	0
6	4	51	467.9972367	468.2472997	0.836555021	2	1	1	54	1	0	0
6	4	52	475.9972418	476.2472559	0.771339736	1	2	1	49	2	0	0
6	4	53	485.9972708	486.2472677	0.595297499	2	1	1	54	2	0	0
6	4	54	495.9972892	496.247291	0.899102395	1	2	1	49	2	0	0
6	4	55	503.9972992	504.2473012	0.808772891	2	1	1	54	2	0	0
6	4	56	511.9973007	512.2473193	0.797585659	1	1	1	54	2	0	0
6	4	57	519.9973309	520.2473341	1.162504962	1	2	1	49	1	0	0
6	4	58	529.9973472	530.2473495	1.059234674	2	1	1	54	2	0	0
6	4	59	537.9973686	538.2473685	0.855199905	2	2	1	49	1	0	0
6	4	60	545.9973813	546.2473788	0.710081037	1	2	1	49	2	0	0
8	1	1	15.99464818	16.24465082	1.154477383	2	1	1	54	2	2133516000	2
8	1	2	25.99467112	26.24467135	0.845243087	2	2	1	49	1	20	0
8	1	3	35.99468863	36.24468886	0.888931553	1	2	0	54	2	1	0
8	1	4	45.99470976	46.24469369	0.855744173	2	2	1	49	2	3	0
8	1	5	53.99472244	54.24472055	1.081569895	2	1	1	54	1	2	0
8	1	6	61.99473814	62.24473806	0.905412344	1	2	1	49	2	0	0
8	1	7	69.99474931	70.24475165	0.787241544	2	2	1	49	2	0	0
8	1	8	79.99477074	80.24476493	1.144064744	2	1	1	54	1	0	0
8	1	9	87.9947807	88.24476825	0.877979476	1	1	1	54	2	0	0
8	1	10	97.99479942	98.24479964	1.572677012	1	2	0	54	1	0	0
8	1	11	105.9948151	106.2448232	0.877625385	2	2	1	49	2	0	0
8	1	12	115.9948317	116.2448389	1.211353864	2	1	1	54	1	0	0
8	1	13	123.9948456	124.2448473	0.869174587	1	2	1	49	2	0	0
8	1	14	133.9948625	134.2448673	0.851066727	2	1	1	54	2	0	0
8	1	15	141.9948861	142.2448781	0.861913452	1	2	1	49	2	0	0
8	1	16	149.9948933	150.2448974	0.863616591	2	1	1	54	2	0	0
8	1	17	157.9949129	158.2449056	0.948504923	1	2	1	49	2	0	0
8	1	18	165.9949283	166.2449246	0.800395447	2	1	1	54	2	0	0
8	1	19	175.9949389	176.2449488	0.891106513	1	1	1	54	2	0	0
8	1	20	185.9949564	186.2449623	0.892994396	2	1	1	54	2	0	0
8	1	21	193.9949751	194.2449886	0.862777398	1	1	0	49	2	0	1
8	1	22	203.9949875	204.2449874	0.935517953	1	2	1	49	1	0	0
8	1	23	213.9950017	214.24501	1.077337101	2	2	1	49	2	0	0
8	1	24	223.9950237	224.2450239	0.958153533	2	2	1	49	1	0	0
8	1	25	233.9950409	234.2450475	0.88900702	2	1	1	54	1	0	0
8	1	26	241.9950527	242.2450586	0.894102252	2	2	1	49	1	0	0
8	1	27	251.9950732	252.2450743	0.89670194	1	2	1	49	2	0	0
8	1	28	259.9950898	260.2450867	1.571471351	1	1	1	54	1	0	0
8	1	29	267.9951058	268.2451208	1.128259232	1	1	1	54	1	0	0
8	1	30	275.9951242	276.2451211	0.963107189	1	2	1	49	1	0	0
8	1	31	283.9951345	284.2451356	0.750120823	1	2	1	49	1	0	0
8	1	32	291.995149	292.2451323	0.895905914	1	1	1	54	1	0	0
8	1	33	299.995162	300.245158	0.760713978	1	2	1	49	1	0	0
8	1	34	309.995181	310.2451782	0.952426189	1	1	1	54	1	0	0
8	1	35	319.9951861	320.2452002	0.918225438	2	2	1	49	2	0	0
8	1	36	329.9952142	330.2452153	0.799180126	2	1	1	54	1	0	0
8	1	37	339.9952311	340.2452295	1.02286017	2	2	1	49	1	0	0
8	1	38	347.9952462	348.2452488	0.942642946	1	1	1	54	2	0	0
8	1	39	357.9952679	358.245263	0.809442133	1	1	1	54	1	0	0
8	1	40	365.9952797	366.2452748	0	1	1	0	0	1	0	0
8	1	41	375.9952906	376.245292	0.668172385	1	1	1	54	1	0	3
8	1	42	385.9953084	386.2453149	0.768928112	1	2	1	49	1	0	0
8	1	43	393.9953262	394.2453294	1.318732577	2	2	1	49	2	0	0
8	1	44	401.9953229	402.2453161	1.084698758	1	2	1	49	2	0	0
8	1	45	409.9953512	410.2453557	0.952480224	2	1	1	54	2	0	0
8	1	46	419.9953724	420.2453756	0.895302479	1	2	1	49	2	0	0
8	1	47	427.9953875	428.2453886	0.89515064	2	2	1	49	2	0	0
8	1	48	435.9953983	436.2454049	0.97789118	2	1	1	54	1	0	0
8	1	49	443.9954019	444.2454227	0.864715995	2	1	1	54	1	0	0
8	1	50	451.9954243	452.245429	0.845672041	1	2	1	49	2	0	0
8	1	51	461.9954502	462.2454278	0.615407952	2	2	0	54	2	0	0
8	1	52	471.9954641	472.2454638	1.032257626	2	1	0	49	1	0	0
8	1	53	481.9954853	482.2454849	0.90308313	2	2	1	49	1	0	0
8	1	54	491.9955007	492.2454948	1.021875476	2	1	1	54	1	0	0
8	1	55	499.995526	500.2455072	0.808572451	2	2	1	49	1	0	0
8	1	56	509.9955408	510.2455293	0.913285669	1	1	1	54	2	0	0
8	1	57	517.995555	518.2455465	1.097115499	1	2	1	49	1	0	0
8	1	58	527.9955613	528.245564	0.606098641	2	1	1	54	2	0	0
8	1	59	537.995581	538.2455815	0.706853463	1	1	1	54	2	0	0
8	1	60	545.9956054	546.2455939	0.950698598	1	1	1	54	1	0	0
8	2	1	14.00798924	14.25798826	0.806788712	1	2	1	49	2	2099601000	2
8	2	2	22.00800766	22.25800637	0.928589778	2	2	1	49	2	21	0
8	2	3	30.00801581	30.25802298	0.644402384	1	1	1	55	2	1	0
8	2	4	40.0080312	40.25803414	0.86512563	1	1	1	55	1	3	0
8	2	5	50.00804841	50.25803807	0.750110257	2	1	0	49	2	2	0
8	2	6	60.00806803	60.25806976	0.906712792	2	1	1	55	1	0	0
8	2	7	68.00807648	68.25807852	0.717685698	1	2	1	49	2	0	0
8	2	8	76.00809248	76.2580921	1.133442006	1	2	1	49	1	0	0
8	2	9	86.00810727	86.25810961	0.751216604	2	2	1	49	2	0	0
8	2	10	96.00811874	96.25812229	0.713886084	1	2	0	55	2	0	0
8	2	11	106.0081341	106.2581413	0.902809034	2	2	1	49	2	0	0
8	2	12	116.0081513	116.2581543	0.863699303	1	1	1	55	2	0	0
8	2	13	124.0081649	124.2581676	0.750456802	2	2	1	49	2	0	0
8	2	14	134.0081809	134.2581812	0.75009939	1	2	1	49	2	0	0
8	2	15	142.0081939	142.2581987	0.93812881	1	1	1	55	1	0	0
8	2	16	152.0082111	152.2582071	1.011942808	2	1	1	55	2	0	0
8	2	17	162.0082223	162.2582298	0.857675525	1	1	1	55	2	0	0
8	2	18	170.0082389	170.2582442	1.050618754	2	1	1	55	2	0	0
8	2	19	178.0082528	178.2582569	1.036369674	2	1	1	55	1	0	0
8	2	20	186.0082648	186.2582678	0.921208801	1	2	1	49	2	0	0
8	2	21	194.0082793	194.2582859	0.830220922	2	2	1	49	2	0	3
8	2	22	202.0082938	202.2582925	0.934954667	2	2	1	49	1	0	0
8	2	23	212.0083119	212.2583107	0.91287543	2	1	1	55	1	0	0
8	2	24	222.0083252	222.2583267	1.128648642	1	1	1	55	2	0	0
8	2	25	232.0083388	232.2583339	0.81634163	1	1	1	55	1	0	0
8	2	26	242.0083581	242.2583538	0.671139447	1	1	1	55	1	0	0
8	2	27	252.0083726	252.2583686	0.862886373	2	2	1	49	2	0	0
8	2	28	260.0083871	260.2583855	1.143861286	2	2	1	49	1	0	0
8	2	29	270.0084031	270.2584045	0.906656947	1	2	1	49	2	0	0
8	2	30	278.0084137	278.2584202	0.926389461	2	2	1	49	2	0	0
8	2	31	288.0084336	288.2584329	0.695229125	2	2	1	49	1	0	0
8	2	32	296.0084393	296.2584435	0.797956353	1	1	1	55	2	0	0
8	2	33	304.008458	304.2584616	0.821757446	2	2	1	49	2	0	0
8	2	34	312.008471	312.2584743	0.585696281	1	2	0	55	2	0	0
8	2	35	322.0084912	322.2584888	1.080534789	2	1	1	55	2	0	0
8	2	36	330.0084931	330.2585017	0.890343994	2	1	0	49	1	0	0
8	2	37	340.0085181	340.2585186	1.164153464	1	1	1	55	2	0	0
8	2	38	350.0085362	350.2585331	0.694067839	1	1	1	55	1	0	0
8	2	39	358.0085447	358.2585437	0.750102107	1	1	1	55	1	0	0
8	2	40	366.0085613	366.2585597	0.807715749	1	2	1	49	1	0	0
8	2	41	374.0085715	374.2585745	0.956353192	1	2	1	49	1	0	1
8	2	42	382.0085827	382.2585869	1.62544235	2	2	1	49	2	0	0
8	2	43	392.0086035	392.2586041	0.92611778	2	1	1	55	1	0	0
8	2	44	402.0086162	402.2586213	0.921889212	2	1	1	55	1	0	0
8	2	45	412.0086443	412.2586273	0.665723932	2	1	1	55	1	0	0
8	2	46	422.0086534	422.2586503	0.66259839	2	1	1	55	1	0	0
8	2	47	430.0086603	430.258662	0.750373184	1	2	1	49	2	0	0
8	2	48	438.0086757	438.258678	1.396200084	1	2	1	49	1	0	0
8	2	49	448.0086802	448.258697	0.99916141	1	2	1	49	1	0	0
8	2	50	456.0087044	456.2587034	0.783903789	1	2	1	49	1	0	0
8	2	51	464.0087173	464.2587188	0.858708216	2	2	1	49	2	0	0
8	2	52	474.0087321	474.2587324	0.890427008	2	1	1	55	1	0	0
8	2	53	484.0087463	484.2587529	0.811255153	1	2	1	49	2	0	0
8	2	54	492.0087659	492.2587577	0.703189086	1	2	1	49	1	0	0
8	2	55	500.0087786	500.2587743	0.907960715	1	1	1	55	1	0	0
8	2	56	510.0087919	510.2587946	0.916867937	1	1	1	55	1	0	0
8	2	57	518.0088082	518.2588057	0.839634981	1	1	1	55	1	0	0
8	2	58	528.0088263	528.2588253	0.922398765	2	1	1	55	2	0	0
8	2	59	538.0088339	538.2588413	1.042186974	2	1	1	55	1	0	0
8	2	60	546.008852	546.2588489	1.039098863	2	2	1	49	1	0	0
8	3	1	16.00864279	16.25863969	0.775429445	1	2	1	49	2	2121784000	2
8	3	2	26.00866814	26.25867018	0.770216183	2	1	0	49	2	21	0
8	3	3	36.00868233	36.25867139	1.086019431	2	1	1	54	1	1	0
8	3	4	44.00869139	44.25870097	0.664819234	1	2	1	49	2	3	0
8	3	5	52.00870739	52.25870791	0.875584756	2	2	1	49	2	2	0
8	3	6	60.00871433	60.25871425	0.744637389	1	1	1	54	2	0	0
8	3	7	68.00873486	68.25873508	0.941339781	1	2	1	49	1	0	0
8	3	8	78.00874663	78.25874685	0.677137264	2	2	1	49	2	0	0
8	3	9	88.00876082	88.25876346	0.869878543	1	2	1	49	2	0	0
8	3	10	98.00876836	98.25877855	0.557749634	1	1	1	54	1	0	0
8	3	11	106.0087901	106.2587858	1.192564083	2	1	0	49	2	0	0
8	3	12	114.0088046	114.2421242	0.903039963	1	1	1	54	2	0	0
8	3	13	122.0088112	122.2588102	0.747375332	1	2	0	54	1	0	0
8	3	14	130.0088236	130.2588305	0.919053462	2	1	1	54	2	0	0
8	3	15	140.0088363	140.2588365	0.812925087	1	1	1	54	2	0	0
8	3	16	150.0088514	150.2588507	0.734821543	2	1	1	54	2	0	0
8	3	17	159.9921819	160.2422099	0.866052365	1	2	1	49	2	0	0
8	3	18	167.9922197	168.2422202	1.287933879	2	2	1	49	2	0	0
8	3	19	177.9922353	178.2422392	0.750096069	2	1	1	54	1	0	0
8	3	20	185.9922483	186.2422407	1.386827381	1	2	1	49	2	0	0
8	3	21	193.992242	194.2422612	0.967397339	1	2	1	49	1	0	3
8	3	22	201.992274	202.2422736	0.903384696	2	1	1	54	2	0	0
8	3	23	211.9922879	212.242289	0.815093406	1	1	1	54	2	0	0
8	3	24	219.9922843	220.2422938	0.765032806	1	2	0	54	1	0	0
8	3	25	227.9922951	228.2422944	0.905841601	1	2	1	49	1	0	0
8	3	26	237.9923259	238.2423107	1.300670902	2	1	1	54	2	0	0
8	3	27	247.9923386	248.2423282	0.751401649	2	2	1	49	1	0	0
8	3	28	255.9923603	256.2423618	1.148350668	1	2	1	49	2	0	0
8	3	29	263.9923507	264.2424137	0.788068361	2	2	1	49	2	0	0
8	3	30	273.9923827	274.2423675	0.674925174	1	1	1	54	2	0	0
8	3	31	281.9923911	282.2423823	1.374840199	1	1	1	54	1	0	0
8	3	32	291.9924086	292.2423956	0.879391615	1	1	1	54	1	0	0
8	3	33	299.9924252	300.2424279	0.804445612	2	2	1	49	2	0	0
8	3	34	307.9924204	308.2424309	1.26128466	2	1	1	54	1	0	0
8	3	35	315.9924307	316.2424475	0.878066112	2	1	0	49	1	0	0
8	3	36	325.992466	326.2424547	0.835949473	2	1	1	54	1	0	0
8	3	37	335.992466	336.2424741	0.978690225	1	2	1	49	2	0	0
8	3	38	345.9924814	346.2424937	0.917490993	2	2	1	49	2	0	0
8	3	39	355.9924953	356.2425009	0.871240572	2	1	1	54	1	0	0
8	3	40	365.9925155	366.2425287	1.149971398	1	2	1	49	2	0	0
8	3	41	373.992526	374.2425371	0.884972855	1	2	1	49	1	0	1
8	3	42	383.992539	384.2425559	0.770680154	2	1	1	54	2	0	0
8	3	43	391.9925568	392.2425565	0.849532934	2	1	1	54	1	0	0
8	3	44	401.9925789	402.2425661	0.648510205	1	2	1	49	2	0	0
8	3	45	411.9925849	412.2425851	1.020388172	1	2	1	49	1	0	0
8	3	46	419.9926088	420.2426108	1.021973282	1	1	1	54	1	0	0
8	3	47	429.9926121	430.2426277	1.000104144	2	2	1	49	2	0	0
8	3	48	437.992626	438.2426093	1.369670104	2	2	1	49	1	0	0
8	3	49	447.9926414	448.2426588	1.291458491	2	2	1	49	1	0	0
8	3	50	455.9926712	456.2426573	0.934313499	1	1	0	49	2	0	0
8	3	51	465.9926734	466.2426742	1.011102105	1	1	1	54	1	0	0
8	3	52	475.9927048	476.2426878	0.835743599	1	1	1	54	1	0	0
8	3	53	483.9927011	484.2427128	0.942790559	1	2	1	49	1	0	0
8	3	54	493.9927346	494.2427146	0.764551024	1	1	1	54	1	0	0
8	3	55	503.9927485	504.2427324	0.752331705	1	1	1	54	1	0	0
8	3	56	513.9927473	514.2427647	0.750103918	1	1	1	54	1	0	0
8	3	57	521.9927721	522.2427747	0.750144972	1	2	1	49	1	0	0
8	3	58	529.9927926	530.2427901	0.683954352	1	2	1	49	1	0	0
8	3	59	537.9927896	538.2428025	1.114580381	2	1	1	54	2	0	0
8	3	60	545.9928204	546.2428194	0.816565918	2	2	1	49	1	0	0
8	4	1	15.9925671	16.24256521	0.880150813	1	1	1	54	2	2133248999	2
8	4	2	25.99258793	26.24258212	0.689952169	2	2	1	49	2	21	0
8	4	3	33.99259427	34.24258121	1.228783426	2	1	1	54	1	1	0
8	4	4	43.99261631	44.24261472	0.762602465	1	1	1	54	2	3	0
8	4	5	53.99262657	54.24261472	0.860616928	1	2	1	49	1	2	0
8	4	6	63.99263864	64.24264581	0.845227692	2	2	1	49	2	0	0
8	4	7	71.99265344	72.24263676	1.021054999	1	2	1	49	2	0	0
8	4	8	79.99266611	80.24264974	1.223876862	2	1	1	54	2	0	0
8	4	9	89.99266581	90.24267781	0.805698063	2	2	1	49	1	0	0
8	4	10	99.99269087	100.2426793	0.875647545	1	1	1	54	2	0	0
8	4	11	107.9926888	108.2427044	0.957507837	2	2	1	49	2	0	0
8	4	12	117.9927057	118.242772	0.78808104	1	1	1	54	2	0	0
8	4	13	125.9927395	126.2427255	0.975921188	2	1	1	54	2	0	0
8	4	14	133.9927331	134.2427424	0.833858131	1	1	1	54	2	0	0
8	4	15	143.9927425	144.2427424	0.750114484	1	2	1	49	1	0	0
8	4	16	151.9927552	152.242772	0.795553483	2	2	1	49	2	0	0
8	4	17	159.9927669	160.242782	1.170498732	2	1	1	54	1	0	0
8	4	18	167.9927908	168.2427835	0.70413997	1	1	1	54	2	0	0
8	4	19	175.9927983	176.2427811	0.636049694	2	2	1	49	2	0	0
8	4	20	185.9928198	186.2428064	0.702684362	1	2	1	49	2	0	0
8	4	21	193.9928143	194.242836	0.632619264	2	1	1	54	2	0	3
8	4	22	203.9928321	204.2428481	0.69660655	1	2	1	49	2	0	0
8	4	23	213.9928451	214.2428472	0.836300244	1	1	1	54	1	0	0
8	4	24	223.9928804	224.2428656	0.640023485	1	1	1	54	1	0	0
8	4	25	231.9928916	232.2428961	0.712059178	2	2	1	49	2	0	0
8	4	26	239.9928892	240.2429045	0.584744189	2	2	1	49	1	0	0
8	4	27	247.9928943	248.2429103	0.821561232	1	2	1	49	2	0	0
8	4	28	257.9929275	258.2429139	0.904416481	2	1	1	54	2	0	0
8	4	29	267.9929453	268.2429498	1.250168367	2	2	1	49	1	0	0
8	4	30	275.9929402	276.2429407	0.872118707	1	1	1	54	2	0	0
8	4	31	283.9929526	284.2429691	0.708765193	2	2	1	49	2	0	0
8	4	32	293.9929656	294.2429818	0.858658106	2	1	1	54	1	0	0
8	4	33	301.9929976	302.243002	0.666660328	2	1	1	54	1	0	0
8	4	34	311.9930118	312.2430084	0.954348184	2	1	1	54	1	0	0
8	4	35	321.9930105	322.243015	0.750115993	2	2	1	49	1	0	0
8	4	36	329.9930359	330.2430265	0.795891877	2	2	1	49	1	0	0
8	4	37	337.9930498	338.243037	0.687881354	2	1	1	54	1	0	0
8	4	38	347.9930483	348.2430654	0.824607081	1	1	1	54	2	0	0
8	4	39	355.9930839	356.243066	0.704513985	2	2	1	49	2	0	0
8	4	40	365.9930954	366.2430893	1.149268045	1	2	0	54	2	0	0
8	4	41	375.9930945	376.2430968	0.840111027	1	1	1	54	1	0	1
8	4	42	383.9931186	384.2431062	0.837928219	1	2	1	49	1	0	0
8	4	43	391.9931189	392.2431237	0.95370279	2	1	1	54	2	0	0
8	4	44	401.9931331	402.2431511	0.785476521	2	1	1	54	1	0	0
8	4	45	409.9931473	410.2431605	0.682307057	1	2	1	49	2	0	0
8	4	46	419.9931751	420.2431629	0.705250845	1	2	1	49	1	0	0
8	4	47	427.9931723	428.2431883	0.693012508	1	2	1	49	1	0	0
8	4	48	435.9931871	436.2432006	0.948831846	1	1	1	54	1	0	0
8	4	49	443.9932125	444.2432013	1.00010988	2	2	1	49	2	0	0
8	4	50	451.9932237	452.2432139	1.000109578	2	1	1	54	1	0	0
8	4	51	459.9932243	460.2432408	0.831494202	1	2	1	49	2	0	0
8	4	52	469.9932421	470.2432453	0.87025286	1	1	1	54	1	0	0
8	4	53	479.9932587	480.2432607	0.771156502	1	1	1	54	1	0	0
8	4	54	487.9932689	488.2432731	0.956906214	1	1	1	54	1	0	0
8	4	55	497.993291	498.2432978	0.866738813	1	2	1	49	1	0	0
8	4	56	507.9933049	508.2433172	0.862385573	2	2	1	49	2	0	0
8	4	57	515.9933263	516.2433271	0.894228433	2	1	1	54	1	0	0
8	4	58	525.9933465	526.2433504	0.618077372	2	1	1	54	1	0	0
8	4	59	535.9933483	536.2433513	0.750109352	2	2	1	49	1	0	0
8	4	60	545.9933616	546.2433618	0.942639927	2	2	1	49	1	0	0
9	1	1	16.00378392	16.25378082	0	1	2	0	0	2	2109112999	1
9	1	2	26.0037969	26.25380376	0	2	1	0	0	2	21	0
9	1	3	34.00380927	34.25381463	1.003275873	1	2	1	49	2	3	0
9	1	4	42.00383433	42.25384301	1.031994699	2	1	1	54	2	2	0
9	1	5	52.00385395	52.25385387	1.227786054	1	1	1	54	2	1	0
9	1	6	60.00386995	60.2538581	1.000116219	2	1	1	54	2	0	0
9	1	7	68.00388112	68.25387651	1.439556797	2	1	1	54	1	0	0
9	1	8	76.0038947	76.25389825	1.372159308	1	1	1	54	2	0	0
9	1	9	84.00389832	84.25390731	1.501269205	2	2	1	49	2	0	0
9	1	10	94.00393696	94.2539224	0	1	2	0	0	2	0	0
9	1	11	104.0039228	104.2539251	1.141755152	1	2	0	54	1	0	0
9	1	12	112.0039593	112.2539505	1.663580065	2	2	1	49	2	0	0
9	1	13	120.0039696	120.2539788	1.260491954	1	1	1	54	2	0	0
9	1	14	128.0039729	128.2539752	1.250096221	1	2	1	49	1	0	0
9	1	15	138.0039871	138.2540042	1.296145899	2	1	0	49	2	0	0
9	1	16	148.0040215	148.2540063	1.0979882	2	2	1	49	1	0	0
9	1	17	158.0040173	158.2540193	0.792687245	1	2	1	49	2	0	0
9	1	18	168.004036	168.2540326	0.914356394	2	1	1	54	2	0	0
9	1	19	176.0040529	176.2540441	1.264294587	2	2	1	49	1	0	0
9	1	20	186.0040794	186.2540782	1.16999763	1	1	1	54	2	0	0
9	1	21	194.0040846	194.2540788	1.007086958	2	2	0	54	2	0	2
9	1	22	204.0040982	204.2541005	1.114852062	2	1	1	54	1	0	0
9	1	23	214.0041299	214.2541129	1.291654705	2	2	1	49	1	0	0
9	1	24	222.0041247	222.2541253	1.366639951	1	1	1	54	2	0	0
9	1	25	232.0041573	232.2541488	1.000099315	1	1	1	54	1	0	0
9	1	26	240.0041691	240.2541551	1.027077268	2	1	1	54	2	0	0
9	1	27	248.0041724	248.2541723	1.008785268	2	1	1	54	1	0	0
9	1	28	258.0041996	258.2541844	1.171791934	1	1	1	54	2	0	0
9	1	29	266.0042123	266.254198	1.32166764	1	2	1	49	1	0	0
9	1	30	276.0042189	276.2542149	0.96330612	1	2	1	49	1	0	0
9	1	31	284.0042428	284.2542312	1.525279492	2	2	0	54	2	0	0
9	1	32	292.0042612	292.2542403	1.090005298	1	2	1	49	2	0	0
9	1	33	302.0042588	302.2542623	1.338868689	2	1	1	54	2	0	0
9	1	34	310.0042651	310.2542677	1.750110257	1	2	1	49	2	0	0
9	1	35	318.0042811	318.2542834	0.871371583	1	1	1	54	1	0	0
9	1	36	328.0043143	328.2542988	1.453323492	1	2	1	49	1	0	0
9	1	37	338.0043282	338.2543206	1.00009207	1	2	1	49	1	0	0
9	1	38	348.0043333	348.2543281	1.448938858	2	1	1	54	2	0	0
9	1	39	358.0043454	358.2543517	1.049777448	2	2	1	49	1	0	0
9	1	40	366.0043762	366.2543571	1.352609423	1	1	1	54	2	0	0
9	1	41	376.0043934	376.2543782	1.250106484	1	2	1	49	1	0	3
9	1	42	384.0044052	384.2543894	1.942159353	1	1	1	54	1	0	0
9	1	43	394.0044064	394.2544108	1.042022456	1	2	1	49	1	0	0
9	1	44	404.0044378	404.2544205	1.27088316	2	1	1	54	2	0	0
9	1	45	412.0044529	412.2544326	1.018665109	2	1	1	54	1	0	0
9	1	46	420.0044601	420.2544507	0.864587701	2	1	1	54	1	0	0
9	1	47	430.0044652	430.2544673	0.774283554	2	1	1	54	1	0	0
9	1	48	440.0044924	440.2544824	0.91316643	2	1	1	54	1	0	0
9	1	49	450.0045141	450.2544993	0.66997182	2	2	0	54	1	0	0
9	1	50	460.0045298	460.254511	0.822802513	2	2	1	49	1	0	0
9	1	51	470.0045404	470.2545319	0.941580672	2	2	1	49	1	0	0
9	1	52	478.0045543	478.2545445	1.250116446	1	2	1	49	2	0	0
9	1	53	486.0045558	486.2545639	0.772019845	1	1	1	54	1	0	0
9	1	54	494.0045748	494.2545681	1.101095328	2	2	1	49	2	0	0
9	1	55	502.0045947	502.2545802	0.78382802	2	1	1	54	1	0	0
9	1	56	512.0045984	512.2545983	1.447646863	1	2	1	49	2	0	0
9	1	57	520.0046189	520.2546101	0.93255391	1	2	1	49	1	0	0
9	1	58	528.0046234	528.2546227	1.162411987	2	1	1	54	2	0	0
9	1	59	536.0046388	536.2546342	1.053259798	2	2	1	49	1	0	0
9	1	60	546.004666	546.2546605	0.828046264	2	1	1	54	1	0	0
9	2	1	13.99234583	14.24234002	0.910071075	2	1	1	54	1	2053920999	2
9	2	2	23.99236334	24.24236749	0.77199962	2	1	1	54	1	21	0
9	2	3	31.99237481	32.24237655	0.78872915	1	2	1	49	2	3	0
9	2	4	41.99238628	42.24238651	1.293490365	2	2	1	49	2	2	0
9	2	5	49.99239745	50.24239949	0.914369677	1	1	1	54	2	1	0
9	2	6	57.99241707	58.24241096	1.025324923	2	1	1	54	2	0	0
9	2	7	67.99243005	68.24243541	1.170108114	2	2	1	49	1	0	0
9	2	8	77.99244515	78.24255133	1.023682157	1	2	1	49	2	0	0
9	2	9	87.99246235	88.24246681	0.955585541	1	2	0	54	1	0	0
9	2	10	95.99247382	96.24247254	1.000098409	2	1	1	54	2	0	0
9	2	11	103.9924856	104.242484	1.016665535	2	1	1	54	1	0	0
9	2	12	111.9924983	112.2424997	1.215153477	1	2	1	49	2	0	0
9	2	13	121.9925146	122.2425157	1.177047156	1	1	1	54	1	0	0
9	2	14	129.9925276	130.2425281	1.302856729	2	1	1	54	2	0	0
9	2	15	139.9925439	140.2425387	1.187566958	2	2	1	49	1	0	0
9	2	16	149.992558	150.2425565	0.868374938	2	2	1	49	1	0	0
9	2	17	159.9925701	160.2425694	0.969184398	2	1	1	54	1	0	0
9	2	18	167.9925849	168.2425839	0.913145602	2	1	1	54	1	0	0
9	2	19	177.9926	178.2426063	0.960798804	1	2	1	49	2	0	0
9	2	20	185.9926169	186.2426168	1.179617563	2	2	1	49	2	0	0
9	2	21	195.9926305	196.2426346	1.03045004	2	1	1	54	1	0	1
9	2	22	203.9926377	204.2426425	1.048426286	1	1	1	54	2	0	0
9	2	23	211.9926574	212.2426552	1.075136784	2	2	1	49	2	0	0
9	2	24	219.9926709	220.2426648	0.956099924	1	2	1	49	2	0	0
9	2	25	227.99268	228.2426793	0.866941669	2	1	1	54	2	0	0
9	2	26	235.9926906	236.2426893	1.089545553	2	1	1	54	1	0	0
9	2	27	245.9927078	246.2427089	1.061450386	1	2	1	49	2	0	0
9	2	28	255.9927214	256.2427195	0.934248296	1	2	1	49	1	0	0
9	2	29	263.9927349	264.2427382	1.15612679	2	2	1	49	2	0	0
9	2	30	273.9927552	274.2427542	0.970178147	1	1	1	54	2	0	0
9	2	31	283.9927715	284.2427705	1.336552757	1	1	1	54	1	0	0
9	2	32	291.9927808	292.2427795	1.049559801	2	2	1	49	2	0	0
9	2	33	299.9927893	300.2427883	0.947388614	1	1	1	54	2	0	0
9	2	34	309.992805	310.2428022	1.055199603	2	1	1	54	2	0	0
9	2	35	317.9928201	318.2428088	0.922038938	1	2	1	49	2	0	0
9	2	36	325.9928288	326.2428287	0.935006588	2	2	1	49	2	0	0
9	2	37	335.992853	336.2428514	0.824685567	2	1	1	54	1	0	0
9	2	38	345.9928599	346.2428595	1.158607543	1	1	1	54	2	0	0
9	2	39	355.9928798	356.2428789	0.891270125	2	2	1	49	2	0	0
9	2	40	365.9928925	366.2428958	0.820209164	1	2	1	49	2	0	0
9	2	41	375.9929149	376.2429145	1.000099919	1	1	1	54	1	0	3
9	2	42	383.9929248	384.2429266	1.000090259	1	1	1	54	1	0	0
9	2	43	393.9929459	394.2429395	0.813513126	2	2	1	49	2	0	0
9	2	44	403.9929535	404.2429329	1.08945952	2	2	1	49	1	0	0
9	2	45	413.992984	414.2429724	0.951237735	2	1	1	54	1	0	0
9	2	46	423.9929843	424.2429703	0.89502144	2	1	1	54	1	0	0
9	2	47	431.9930021	432.2429993	1.110856536	1	2	1	49	2	0	0
9	2	48	439.9930157	440.2430153	0.853577062	1	2	1	49	1	0	0
9	2	49	447.9930253	448.243025	0.715486287	1	2	1	49	1	0	0
9	2	50	457.9930428	458.2430398	0.827266841	1	1	1	54	1	0	0
9	2	51	465.9930558	466.2430548	1.00009056	2	1	1	54	2	0	0
9	2	52	475.99307	476.2430711	1.050943866	2	2	1	49	1	0	0
9	2	53	483.9930869	484.2430896	1.000102333	2	1	1	54	1	0	0
9	2	54	491.9930945	492.2431019	0.819573128	2	1	1	54	1	0	0
9	2	55	501.9931056	502.2431101	1.034466093	2	2	1	49	1	0	0
9	2	56	511.993125	512.2431267	0.839235911	1	2	1	49	2	0	0
9	2	57	521.993144	522.243146	0.918032846	1	1	1	54	1	0	0
9	2	58	529.993156	530.2431557	0.762825244	1	1	1	54	1	0	0
9	2	59	537.9931751	538.2431705	0.920693512	2	2	1	49	2	0	0
9	2	60	545.9931793	546.243185	0.765548698	2	2	1	49	1	0	0
9	3	1	14.00626678	14.25625373	0.923532279	2	1	0	49	1	2117417000	3
9	3	2	24.00628942	24.25628965	1.213204013	1	1	1	54	2	21	0
9	3	3	34.00630331	34.25628482	1.108146967	1	2	1	49	1	3	0
9	3	4	42.00631146	42.25629387	0.87488563	2	1	1	54	2	2	0
9	3	5	50.00632776	50.25632436	1.044794209	2	2	1	49	1	1	0
9	3	6	60.00633712	60.25633855	0.840391764	1	2	1	49	2	0	0
9	3	7	70.00635372	70.25635063	1.112203471	1	2	1	49	1	0	0
9	3	8	78.00634919	78.25636723	0.750104522	1	2	1	49	1	0	0
9	3	9	88.00636459	88.25637417	0.862955802	1	2	1	49	1	0	0
9	3	10	98.00638089	98.25639379	0.800847948	1	1	1	54	1	0	0
9	3	11	108.0063978	108.2564065	0.815445384	1	1	1	54	1	0	0
9	3	12	118.0064222	118.2564107	1.307470783	2	1	1	54	2	0	0
9	3	13	126.0064391	126.2564388	1.074287931	2	2	1	49	1	0	0
9	3	14	134.0064521	134.2564355	0.830159341	2	1	1	54	1	0	0
9	3	15	144.0064527	144.256465	0.785892798	2	2	1	49	1	0	0
9	3	16	154.006479	154.2564665	1.034662308	2	1	1	54	1	0	0
9	3	17	162.0064793	162.2564937	0.867592798	2	2	1	49	1	0	0
9	3	18	170.0065056	170.2564973	0.908422271	1	2	1	49	2	0	0
9	3	19	178.0065176	178.2565179	1.000095994	1	1	1	54	1	0	0
9	3	20	186.0065243	186.256523	0.930107873	1	1	1	54	1	0	0
9	3	21	196.00654	196.2565275	1.329912866	2	1	1	54	2	0	1
9	3	22	204.0065376	204.2565535	1.050650148	1	1	1	54	2	0	0
9	3	23	214.0065699	214.2565725	1.030437965	1	2	1	49	1	0	0
9	3	24	222.0065795	222.2565876	0.96329314	2	1	1	54	2	0	0
9	3	25	232.0065925	232.2565939	1.030195565	1	2	1	49	2	0	0
9	3	26	242.0065931	242.2566084	1.150890586	2	2	1	49	2	0	0
9	3	27	250.0066061	250.2566232	0.921878646	1	2	1	49	2	0	0
9	3	28	260.0066342	260.2566226	0.96055912	2	2	1	49	2	0	0
9	3	29	268.0066541	268.2566501	1.068353204	2	2	1	49	1	0	0
9	3	30	278.006664	278.2566643	1.211211382	1	1	1	54	2	0	0
9	3	31	286.006677	286.2566643	1.771081035	2	1	1	54	2	0	0
9	3	32	294.0066918	294.2566896	0.941875296	1	1	1	54	2	0	0
9	3	33	304.0066906	304.2567068	1.122772477	1	2	1	49	1	0	0
9	3	34	312.0067187	312.2567234	1.077594594	2	1	1	54	2	0	0
9	3	35	320.0067157	320.2567316	0.896459238	1	2	1	49	2	0	0
9	3	36	328.0067428	328.2567307	1.000111691	1	1	1	54	1	0	0
9	3	37	338.0067591	338.2567539	0.84112621	2	2	1	49	2	0	0
9	3	38	346.0067745	346.2567588	0.809948969	2	2	1	49	1	0	0
9	3	39	356.006786	356.2567901	1.004739933	1	1	1	54	2	0	0
9	3	40	366.0068029	366.2568016	0.954421538	2	1	1	54	2	0	0
9	3	41	376.0068144	376.2568188	1.000088145	2	1	1	54	1	0	2
9	3	42	384.006824	384.2568161	0.750103918	2	1	1	54	1	0	0
9	3	43	392.0068234	392.2568433	0.851963577	2	2	1	49	1	0	0
9	3	44	400.006856	400.2568572	1.083800399	1	1	1	54	2	0	0
9	3	45	408.0068654	408.2568644	0.893637677	1	2	1	49	1	0	0
9	3	46	418.0068651	418.256878	1.146470634	2	2	1	49	2	0	0
9	3	47	428.0068947	428.2568807	0.824224614	1	2	1	49	2	0	0
9	3	48	438.0069098	438.2568955	0.879119028	1	2	1	49	1	0	0
9	3	49	446.0069098	446.2569151	0.890903054	1	2	1	49	1	0	0
9	3	50	456.0069421	456.2569242	1.072570905	1	1	1	54	1	0	0
9	3	51	466.0069541	466.2569544	0.909445906	1	1	1	54	1	0	0
9	3	52	474.0069683	474.2569734	0.873283616	1	1	1	54	1	0	0
9	3	53	484.0069801	484.2570087	1.167940399	2	2	1	49	2	0	0
9	3	54	492.0069774	492.2569969	0.898028047	1	1	1	54	2	0	0
9	3	55	500.0069928	500.2570072	0.950813308	2	2	1	49	2	0	0
9	3	56	510.0070139	510.2570283	0.811671127	1	1	1	54	2	0	0
9	3	57	518.0070329	518.2570386	0.826419799	2	2	1	49	2	0	0
9	3	58	528.0070381	528.2570464	0.88522582	1	2	1	49	2	0	0
9	3	59	538.0070559	538.2570627	1.214947301	2	1	1	54	2	0	0
9	3	60	546.0070649	546.2570796	1.111865681	2	1	1	54	1	0	0
9	4	1	15.99283335	16.24283659	0.857523384	1	2	1	49	2	2091960999	1
9	4	2	23.99283818	24.24283901	0.915513153	2	2	1	49	2	21	0
9	4	3	31.99285659	32.24284595	0.829232908	1	2	1	49	2	3	0
9	4	4	41.99285629	42.24287071	0.822136592	2	1	1	54	2	2	0
9	4	5	49.99288859	50.24289123	0.926744156	1	2	1	49	2	1	0
9	4	6	59.99290157	60.2429027	0.943716993	2	1	1	54	2	0	0
9	4	7	69.99291666	70.24291961	1.104579188	2	1	1	54	1	0	0
9	4	8	77.99293206	78.24291478	1.216313255	1	2	1	49	2	0	0
9	4	9	85.99293025	86.2429347	1.093251286	1	1	1	54	1	0	0
9	4	10	95.99295862	96.24293712	1.000112295	2	2	1	49	2	0	0
9	4	11	105.9929595	106.2429679	0.788890046	2	1	1	54	1	0	0
9	4	12	115.9929864	116.242977	0.883554074	1	1	1	54	2	0	0
9	4	13	123.9929964	124.2429969	0.83445583	1	1	1	54	1	0	0
9	4	14	133.9930105	134.2430105	1.332194687	2	2	1	49	2	0	0
9	4	15	143.9930223	144.2430075	0.75307098	2	2	1	49	1	0	0
9	4	16	151.9930193	152.2430364	0.917952549	1	2	1	49	2	0	0
9	4	17	161.9930456	162.2430509	0.95464975	2	1	1	54	2	0	0
9	4	18	169.9930625	170.243063	0.814494198	1	1	1	54	2	0	0
9	4	19	177.9930718	178.2430721	1.31536554	2	1	1	54	2	0	0
9	4	20	185.9930724	186.2430862	0.958148703	1	2	1	49	2	0	0
9	4	21	195.9930984	196.2430989	1.095988626	1	2	1	49	1	0	3
9	4	22	203.9930984	204.2430962	1.110829669	1	2	1	49	1	0	0
9	4	23	213.9931307	214.2431288	0.69275109	1	2	1	49	1	0	0
9	4	24	221.9931355	222.2431321	1.128435221	2	1	1	54	2	0	0
9	4	25	231.9931313	232.2431351	1.000103239	2	2	1	49	1	0	0
9	4	26	241.9931449	242.2431795	0.81611855	2	1	1	54	1	0	0
9	4	27	249.9931551	250.2431545	0.909992589	2	1	1	54	1	0	0
9	4	28	259.9931883	260.2431922	1.075689505	2	2	1	49	1	0	0
9	4	29	267.9932043	268.2432067	1.089659055	1	1	1	54	2	0	0
9	4	30	277.9932225	278.2432215	0.838475506	1	2	1	49	1	0	0
9	4	31	285.9932261	286.2432278	1.35231963	2	1	1	54	2	0	0
9	4	32	293.9932418	294.2432453	1.201021824	2	1	1	54	1	0	0
9	4	33	303.9932535	304.2432559	0.96383771	2	1	1	54	1	0	0
9	4	34	313.9932759	314.2432665	0.770633365	2	2	1	49	1	0	0
9	4	35	321.9932889	322.2432728	0.875557286	2	2	1	49	1	0	0
9	4	36	331.9933015	332.2433024	1.00009539	1	2	1	49	2	0	0
9	4	37	339.9933073	340.2433117	1.118284604	1	1	1	54	1	0	0
9	4	38	349.993323	350.2433253	1.000098409	2	1	1	54	2	0	0
9	4	39	357.9933351	358.2433359	0.925871757	2	1	1	54	1	0	0
9	4	40	365.9933538	366.2433561	0.888474525	2	2	1	49	1	0	0
9	4	41	375.9933616	376.243367	0.832340942	2	2	1	49	1	0	2
9	4	42	385.9933824	386.2433778	1.137262147	1	2	1	49	2	0	0
9	4	43	395.9933936	396.2433951	1.00302985	1	2	1	49	1	0	0
9	4	44	403.9934081	404.2433966	0.931875612	2	1	1	54	2	0	0
9	4	45	413.9934163	414.2434183	0.877760622	1	2	1	49	2	0	0
9	4	46	423.9934341	424.2434349	0.88735399	2	1	1	54	2	0	0
9	4	47	433.9934452	434.24345	0.882384939	1	1	1	54	2	0	0
9	4	48	441.9934658	442.243469	1.118208835	2	2	1	49	2	0	0
9	4	49	451.993486	452.2434811	1.000097805	2	1	1	54	1	0	0
9	4	50	459.9934929	460.243491	1.346847667	2	2	1	49	1	0	0
9	4	51	467.9935041	468.2435022	0.873798905	2	1	1	54	1	0	0
9	4	52	477.9935159	478.2435173	0.947391029	2	1	1	54	1	0	0
9	4	53	487.9935355	488.2435227	1.206184976	1	1	1	54	2	0	0
9	4	54	495.9935524	496.2435418	1.633158401	1	2	1	49	1	0	0
9	4	55	503.993553	504.2435575	1.203865119	1	2	1	49	1	0	0
9	4	56	513.9935738	514.2435593	1.544805831	2	2	1	49	2	0	0
9	4	57	521.993585	522.2435804	0.80763515	2	1	1	54	1	0	0
9	4	58	529.9935998	530.2436	0.861238776	2	1	1	54	1	0	0
9	4	59	537.9936079	538.2436112	1.045087927	1	1	1	54	2	0	0
9	4	60	545.9936221	546.2436199	1.179093218	2	2	1	49	2	0	0
10	1	1	15.99990582	16.24990484	1.158681199	2	2	1	49	2	2137790000	1
10	1	2	25.99991276	26.24991661	0.750106333	2	2	1	49	1	20	0
10	1	3	33.99994174	34.24994197	1.193485083	1	1	1	54	2	2	0
10	1	4	43.99996076	44.24995857	1.223153586	1	1	1	54	1	3	0
10	1	5	51.99996438	52.24995978	1.163024477	2	1	1	54	2	1	0
10	1	6	61.99998823	62.24998936	0.810740769	2	1	1	54	1	0	0
10	1	7	69.99999215	70.24998936	1.902474866	1	1	1	54	2	0	0
10	1	8	78.00002083	78.2500114	1.750110257	1	2	1	49	1	0	0
10	1	9	86.00002264	86.25002679	1.417447373	2	1	1	54	2	0	0
10	1	10	96.00005403	96.2500452	0.933154326	1	2	1	49	2	0	0
10	1	11	104.0000598	104.2500621	1.561944996	2	2	1	49	2	0	0
10	1	12	112.00007	112.2500691	1.068758914	1	1	1	54	2	0	0
10	1	13	122.0000894	122.2500914	0.944544413	2	2	1	49	2	0	0
10	1	14	130.0001044	130.2501011	1.064384242	1	1	1	54	2	0	0
10	1	15	140.000121	140.2501219	1.250114634	2	2	1	49	2	0	0
10	1	16	148.0001304	148.2501164	1.000131011	1	2	1	49	2	0	0
10	1	17	158.0001337	158.2501451	1.020736528	2	1	1	54	2	0	0
10	1	18	168.0001657	168.2501669	1.446661263	2	2	1	49	1	0	0
10	1	19	178.0001841	178.2501886	1.042526274	1	1	1	54	2	0	0
10	1	20	186.0001932	186.2501717	1.134297198	2	2	1	49	2	0	0
10	1	21	196.0002134	196.2502133	1.022170402	2	2	1	49	1	0	3
10	1	22	204.0002222	204.2502296	0.894021351	2	2	1	49	1	0	0
10	1	23	214.0002451	214.2502447	1.867567139	2	1	1	54	1	0	0
10	1	24	222.000253	222.2502601	1.173647518	1	1	1	54	2	0	0
10	1	25	230.0002723	230.2502686	1.090383539	2	1	1	54	2	0	0
10	1	26	238.0002804	238.2502846	1.097240473	2	1	1	54	1	0	0
10	1	27	248.0002961	248.2503018	1.040171703	1	1	1	54	2	0	0
10	1	28	258.00031	258.2503178	0.942960511	2	2	1	49	2	0	0
10	1	29	266.0003218	266.2503214	1.144655803	1	1	1	54	2	0	0
10	1	30	274.0003345	274.2503392	1.015610506	1	2	1	49	1	0	0
10	1	31	282.0003535	282.2503588	0.728371225	1	2	1	49	1	0	0
10	1	32	292.0003689	292.2503748	1.060175597	2	1	1	54	2	0	0
10	1	33	302.0003891	302.2503724	1.036962543	2	2	1	49	1	0	0
10	1	34	312.0004075	312.2504087	0.838785524	1	1	1	54	2	0	0
10	1	35	322.0004229	322.2504253	0.786758857	1	2	1	49	1	0	0
10	1	36	330.0004311	330.2504334	0.705274692	1	2	1	49	1	0	0
10	1	37	338.000445	338.2504509	1.089167614	1	1	1	54	1	0	0
10	1	38	348.0004676	348.2504666	1.280041839	2	2	0	54	2	0	0
10	1	39	358.0004652	358.2504826	0.974043569	1	1	1	54	2	0	0
10	1	40	366.0004966	366.2504911	1.978775351	2	2	1	49	2	0	0
10	1	41	376.000508	376.2505028	1.142579252	2	2	1	49	1	0	2
10	1	42	386.0005246	386.2505228	0.783331447	2	2	1	49	1	0	0
10	1	43	394.0005394	394.2505415	1.101172607	1	1	1	54	2	0	0
10	1	44	404.0005539	404.2505557	1.33911773	1	1	1	54	1	0	0
10	1	45	414.0005772	414.2505692	1.123800036	2	1	1	54	2	0	0
10	1	46	424.0005732	424.250575	1.138587046	2	1	1	54	1	0	0
10	1	47	434.0005974	434.2506025	1.063375399	2	1	1	54	1	0	0
10	1	48	442.0006234	442.2506188	1.05115125	1	2	1	49	2	0	0
10	1	49	450.0006303	450.2506329	0.926881204	1	1	1	54	1	0	0
10	1	50	458.0006418	458.2506459	1.193980146	1	2	1	49	1	0	0
10	1	51	466.0006433	466.2506486	1.180691006	2	2	1	49	2	0	0
10	1	52	476.0006783	476.2506815	0.92366812	2	1	1	54	1	0	0
10	1	53	484.0006834	484.2506888	1.0244163	2	2	1	49	1	0	0
10	1	54	492.0007034	492.2506963	1.308157835	2	1	1	54	1	0	0
10	1	55	500.0007224	500.2507217	1.009029177	2	2	1	49	1	0	0
10	1	56	510.0007166	510.2507147	0.848836223	1	2	1	49	2	0	0
10	1	57	518.0007363	518.2507416	1.000087542	1	1	1	54	1	0	0
10	1	58	526.0007571	526.250757	0.913637647	1	2	1	49	1	0	0
10	1	59	536.0007722	536.2507736	0.844385178	1	1	1	54	1	0	0
10	1	60	546.0007918	546.2507884	0.721130919	1	2	1	49	1	0	0
10	2	1	16.0070456	16.25703466	1.863330722	1	1	1	54	2	2055062000	1
10	2	2	26.00707005	26.25706968	1.017709998	2	2	1	49	2	21	0
10	2	3	36.00707609	36.25707903	0.754412784	1	1	1	54	2	2	0
10	2	4	44.00708666	44.25709684	1.081446733	2	1	1	54	2	3	0
10	2	5	52.00710326	52.25711194	1.000105352	1	1	1	54	2	1	0
10	2	6	62.00711745	62.25711918	0.824019042	1	1	1	54	1	0	0
10	2	7	70.00712862	70.25716386	1.424792126	2	1	1	54	2	0	0
10	2	8	80.00713163	80.25714182	0.781753582	1	2	1	49	2	0	0
10	2	9	90.0071582	90.25716386	1.116605614	2	2	1	49	2	0	0
10	2	10	98.00717541	98.25717533	1.000121351	2	2	1	49	1	0	0
10	2	11	108.0071881	108.2571934	1.111085352	1	1	1	54	2	0	0
10	2	12	116.0072017	116.2572125	1.084048233	1	2	1	49	1	0	0
10	2	13	124.0072162	124.2572236	1.00377637	2	1	1	54	2	0	0
10	2	14	134.0072331	134.2572372	1.063509126	1	1	1	54	2	0	0
10	2	15	142.0072424	142.2572466	1.194397026	1	1	1	54	1	0	0
10	2	16	152.0072632	152.2572668	0.924228689	2	2	1	49	2	0	0
10	2	17	160.0072729	160.2572765	1.107135709	1	2	1	49	2	0	0
10	2	18	168.0072877	168.2572906	1.400883266	1	2	1	49	1	0	0
10	2	19	178.0073028	178.2573024	1.024802691	2	2	1	49	2	0	0
10	2	20	186.0073118	186.2573157	0.891529128	1	2	1	49	2	0	0
10	2	21	196.0073285	196.2573296	0.918324451	1	1	1	54	1	0	3
10	2	22	206.0073411	206.2573498	0.753137693	1	2	1	49	1	0	0
10	2	23	214.0073487	214.2573604	0.835977849	2	1	1	54	2	0	0
10	2	24	222.0073728	222.25738	0.934820034	2	1	1	54	1	0	0
10	2	25	232.0073834	232.2573966	1.049612024	1	1	1	54	2	0	0
10	2	26	240.0074012	240.2574078	1.390308223	2	1	1	54	2	0	0
10	2	27	250.0074154	250.2574232	0.861354996	2	1	1	54	1	0	0
10	2	28	258.0074302	258.2574319	1.55003962	1	2	1	49	2	0	0
10	2	29	268.0074386	268.257454	0.869862846	1	2	1	49	1	0	0
10	2	30	276.0074558	276.257469	1.00010505	2	2	1	49	2	0	0
10	2	31	286.0074752	286.2574814	0.940599299	1	1	1	54	2	0	0
10	2	32	294.0074779	294.2574908	1.133275073	2	2	1	49	2	0	0
10	2	33	302.0074924	302.2575089	1.515336862	2	1	1	54	1	0	0
10	2	34	312.0075053	312.2575228	0.926023295	1	1	1	54	2	0	0
10	2	35	320.0075207	320.2575373	0.891849712	1	1	1	54	1	0	0
10	2	36	328.0075367	328.2575509	0.883709536	1	2	1	49	1	0	0
10	2	37	338.0075784	338.2575638	0.758508228	1	2	1	49	1	0	0
10	2	38	346.0075736	346.2575714	1.209348252	2	2	1	49	2	0	0
10	2	39	356.0075862	356.2575877	0.788033646	1	2	1	49	2	0	0
10	2	40	366.0076095	366.2576085	0.776949653	1	2	1	49	1	0	0
10	2	41	374.0076164	374.2576173	0.968883737	1	1	1	54	1	0	2
10	2	42	382.0076367	382.2576357	0.944615352	1	2	1	49	1	0	0
10	2	43	392.0076457	392.2576426	1.35754225	2	1	1	54	2	0	0
10	2	44	402.0076638	402.2576589	1.000114106	2	1	1	54	1	0	0
10	2	45	412.0076816	412.2576779	1.802114586	1	1	1	54	2	0	0
10	2	46	420.0076946	420.2576864	1.149863329	1	1	1	54	1	0	0
10	2	47	428.0077112	428.2577133	0.836814024	1	1	1	54	1	0	0
10	2	48	438.0077245	438.2577108	0.855623727	1	2	1	49	1	0	0
10	2	49	446.0077345	446.2577386	0.859482809	1	2	1	49	1	0	0
10	2	50	454.0077514	454.2577425	0	2	2	0	0	2	0	0
10	2	51	462.0077465	462.2577504	0.833921523	2	1	1	54	1	0	0
10	2	52	472.007774	472.2577751	0.8679001	2	2	1	49	1	0	0
10	2	53	482.0077918	482.2577981	0.783649012	2	1	1	54	1	0	0
10	2	54	490.0078063	490.2578117	0.932572626	2	1	1	54	1	0	0
10	2	55	498.0078081	498.2578162	1.150423596	1	1	1	54	2	0	0
10	2	56	506.0078289	506.2578379	1.892332097	1	2	1	49	1	0	0
10	2	57	516.0078495	516.2578485	1.19291908	2	2	1	49	2	0	0
10	2	58	526.0078682	526.2578705	1.103897872	2	2	1	49	1	0	0
10	2	59	536.0078863	536.2578802	0.705643273	2	2	1	49	1	0	0
10	2	60	546.0079002	546.2578998	0.816247749	2	2	1	49	1	0	0
10	3	1	16.00461858	16.25461277	0.835641568	2	2	1	49	2	2120574000	1
10	3	2	24.00462402	24.25462605	1.000116823	1	1	1	54	2	20	0
10	3	3	32.00464696	32.25463601	0.939219158	2	1	1	54	2	2	0
10	3	4	40.00466658	40.25466107	1.020161469	2	1	1	54	1	3	0
10	3	5	50.00468107	50.25468069	0.851889619	1	2	1	49	2	1	0
10	3	6	60.00469646	60.25467737	1.075718182	1	2	1	49	1	0	0
10	3	7	68.00470643	68.2546816	1.084600349	2	2	1	49	2	0	0
10	3	8	78.00472484	78.25471661	1.373287087	1	1	1	54	2	0	0
10	3	9	88.00472665	88.25473201	0.827166922	1	1	1	54	1	0	0
10	3	10	96.0047508	96.25475525	1.009957723	2	2	1	49	2	0	0
10	3	11	106.0047656	106.25477	0.750101202	1	2	1	49	2	0	0
10	3	12	114.0047762	114.2547815	1.215694123	1	1	1	54	1	0	0
10	3	13	122.0047879	122.2547933	0.815449308	2	2	1	49	2	0	0
10	3	14	132.0047879	132.2547993	1.17323094	1	1	1	54	2	0	0
10	3	15	142.0048184	142.2548192	0.908147873	2	2	1	49	2	0	0
10	3	16	150.0048347	150.254834	0.918895284	2	1	1	54	1	0	0
10	3	17	158.0048392	158.254847	1.347716443	1	1	1	54	2	0	0
10	3	18	168.0048598	168.2548615	0.718514326	2	1	1	54	2	0	0
10	3	19	176.0048722	176.2548721	0.975384769	1	2	1	49	2	0	0
10	3	20	186.0048906	186.2548887	0.694286995	2	2	1	49	2	0	0
10	3	21	194.0049002	194.254902	0.860008966	1	2	1	49	2	0	3
10	3	22	202.0049144	202.2549113	0.88483309	2	1	1	54	2	0	0
10	3	23	212.0049268	212.2549315	1.19283667	1	1	1	54	2	0	0
10	3	24	220.0049262	220.2549237	0.765613298	1	1	1	54	1	0	0
10	3	25	228.0049521	228.2549551	1.286322809	1	2	1	49	1	0	0
10	3	26	238.0049709	238.2549759	0.712171473	1	2	1	49	1	0	0
10	3	27	246.0049621	246.2549811	0.673993308	1	2	1	49	1	0	0
10	3	28	254.0049799	254.254982	1.500099465	2	1	1	54	2	0	0
10	3	29	262.0050026	262.2550079	0.822740027	1	1	1	54	2	0	0
10	3	30	272.0050288	272.2550215	0.861554832	2	2	1	49	2	0	0
10	3	31	282.0050376	282.2550432	0.807257815	1	2	1	49	2	0	0
10	3	32	292.0050524	292.255055	0.841032932	1	1	1	54	1	0	0
10	3	33	300.0050656	300.2550647	0.828981452	1	2	1	49	1	0	0
10	3	34	308.005078	308.2550825	1.056856255	2	1	1	54	2	0	0
10	3	35	318.0050937	318.2550924	0.810651416	2	2	1	49	1	0	0
10	3	36	328.0051146	328.2551157	0.925336545	2	1	1	54	1	0	0
10	3	37	336.0051272	336.255122	0.750108144	2	1	1	54	1	0	0
10	3	38	346.0051378	346.2551347	0.82799223	1	1	0	49	2	0	0
10	3	39	356.0051399	356.2551356	1.085797256	1	2	1	49	1	0	0
10	3	40	366.0051683	366.2551755	1.13568549	2	2	1	49	2	0	0
10	3	41	374.0051668	374.2551815	0.811465554	2	2	1	49	1	0	2
10	3	42	384.0052027	384.2552044	0.858217076	2	1	1	54	1	0	0
10	3	43	394.0052151	394.2552153	0.750100598	2	1	1	54	1	0	0
10	3	44	404.0052259	404.2552367	0.709799997	2	1	1	54	1	0	0
10	3	45	412.0052359	412.2552449	0.809695098	2	2	1	49	1	0	0
10	3	46	422.0052567	422.2552582	0.844475738	1	2	1	49	2	0	0
10	3	47	430.0052658	430.2552721	0.699335437	1	2	1	49	1	0	0
10	3	48	440.0052875	440.2552781	0.843127595	1	1	0	49	1	0	0
10	3	49	448.0053011	448.255301	1.461031996	2	1	1	54	2	0	0
10	3	50	458.0053198	458.2553197	1.295745924	2	2	1	49	1	0	0
10	3	51	468.0053328	468.2553309	1.072544944	1	2	1	49	2	0	0
10	3	52	476.0053431	476.2553246	1.250130935	1	1	1	54	1	0	0
10	3	53	486.0053461	486.2553445	0.886319186	1	2	1	49	1	0	0
10	3	54	494.0053557	494.2553557	1.15805603	1	1	1	54	1	0	0
10	3	55	502.0053908	502.2553892	0.888881443	1	2	1	49	1	0	0
10	3	56	510.0053998	510.2553982	0.926783399	2	1	1	54	2	0	0
10	3	57	518.0054125	518.2554073	1.000665317	2	1	1	54	1	0	0
10	3	58	528.0054297	528.2554242	0.852369891	2	1	1	54	1	0	0
10	3	59	536.0054457	536.255432	1.374206879	1	2	1	49	2	0	0
10	3	60	546.0054596	546.2554489	0.92800687	1	2	1	49	1	0	0
10	4	1	15.99367194	16.24368575	0.913021232	1	2	1	49	1	2115864000	2
10	4	2	23.99370303	24.24370265	0.667856329	1	2	1	49	1	20	0
10	4	3	31.99369941	32.24369813	1.139605851	2	1	1	54	2	2	0
10	4	4	41.9937142	42.24371262	0.768471989	2	1	1	54	1	3	0
10	4	5	49.99374107	50.24374552	1.22933343	2	2	1	49	1	1	0
10	4	6	57.99375707	58.2437582	1.18221695	1	2	1	49	2	0	0
10	4	7	65.99376552	66.24376816	0.859989948	1	1	1	54	1	0	0
10	4	8	75.99377789	76.24378174	0.772932996	1	1	1	54	1	0	0
10	4	9	85.99379329	86.24379684	1.596649566	1	2	1	49	1	0	0
10	4	10	93.99380536	94.24380921	1.193317848	2	2	1	49	2	0	0
10	4	11	103.9938189	104.2438098	0.905149115	2	1	1	54	1	0	0
10	4	12	113.9938349	114.2438409	0.82906688	2	2	1	49	1	0	0
10	4	13	121.993831	122.2438463	1.278965981	1	1	1	54	2	0	0
10	4	14	129.9938512	130.2438482	0.884931197	1	1	1	54	1	0	0
10	4	15	139.9938585	140.2438623	1.133563357	2	1	1	54	2	0	0
10	4	16	147.9938929	148.2438904	0.926349615	2	1	1	54	1	0	0
10	4	17	155.9938965	156.2439638	0.87205954	2	1	1	54	1	0	0
10	4	18	165.9939005	166.2439218	1.000098409	2	2	1	49	1	0	0
10	4	19	175.9939258	176.2439312	1.000093579	2	2	1	49	1	0	0
10	4	20	185.9939463	186.243946	0.923632802	2	2	1	49	1	0	0
10	4	21	195.9939632	196.2439632	0.750099088	2	2	1	49	1	0	3
10	4	22	203.9939729	204.2439771	0.855336349	2	2	1	49	1	0	0
10	4	23	211.9939817	212.2439601	0.947215342	2	1	1	54	1	0	0
10	4	24	219.9939958	220.2439961	0.906901761	2	1	1	54	1	0	0
10	4	25	227.9940088	228.2440075	0.691959894	2	2	1	49	1	0	0
10	4	26	235.9940221	236.244022	1.000181725	1	2	1	49	2	0	0
10	4	27	243.9940321	244.2440338	0.860499199	2	1	1	54	2	0	0
10	4	28	253.994033	254.2440525	0.97723039	2	1	1	54	1	0	0
10	4	29	263.9940595	264.2440456	0.805111533	2	2	1	49	1	0	0
10	4	30	273.9940755	274.2440746	0.949722357	1	2	1	49	2	0	0
10	4	31	281.9940764	282.2440782	0	2	1	0	0	2	0	0
10	4	32	289.9940967	290.2440851	0.9196412	2	2	1	49	1	0	0
10	4	33	299.9941193	300.2441171	1.000105654	1	1	1	54	2	0	0
10	4	34	309.9941359	310.2441352	1.096183934	2	1	1	54	2	0	0
10	4	35	319.9941444	320.2441473	0.885941851	1	1	1	54	2	0	0
10	4	36	327.9941438	328.2441546	1.018796723	2	1	1	54	2	0	0
10	4	37	337.9941755	338.2441579	0.895731736	2	1	1	54	1	0	0
10	4	38	347.9941924	348.2441914	1.957364148	1	2	1	49	2	0	0
10	4	39	357.9942062	358.2442059	1.362162644	2	2	1	49	2	0	0
10	4	40	365.9942174	366.2442195	0.728032227	2	2	1	49	1	0	0
10	4	41	375.9942343	376.2442358	1.059703173	1	2	1	49	2	0	1
10	4	42	385.9942512	386.2442524	0.896749635	1	2	1	49	1	0	0
10	4	43	393.9942458	394.2442421	1.258634258	2	1	1	54	2	0	0
10	4	44	403.9942636	404.2442804	1.307130276	1	1	1	54	2	0	0
10	4	45	411.9942899	412.2442898	1.009131812	2	2	1	49	2	0	0
10	4	46	421.9943022	422.2443103	1.128100148	1	2	1	49	2	0	0
10	4	47	429.9943077	430.2443176	1.190741705	1	1	1	54	1	0	0
10	4	48	437.9943303	438.2443333	1.825564607	2	1	1	54	2	0	0
10	4	49	445.9943451	446.2443441	0.87944414	1	2	1	49	2	0	0
10	4	50	455.9943602	456.2443625	1.11133711	2	2	1	49	2	0	0
10	4	51	463.9943738	464.244374	1.059120266	1	1	1	54	2	0	0
10	4	52	473.9943886	474.2443873	0.794942502	1	2	1	49	1	0	0
10	4	53	481.9943973	482.2443852	1.112946972	2	1	1	54	2	0	0
10	4	54	489.9944109	490.2444108	1.16365025	1	1	1	54	2	0	0
10	4	55	497.9944206	498.2444274	1.632405542	2	1	1	54	2	0	0
10	4	56	507.9944432	508.2444434	1.3002504	1	1	1	54	2	0	0
10	4	57	517.9944613	518.2444609	0.864893494	1	1	1	54	1	0	0
10	4	58	525.9944716	526.2444688	1.448732682	2	2	1	49	2	0	0
10	4	59	535.9944825	536.2444884	0.816594898	2	2	1	49	1	0	0
10	4	60	545.9944994	546.2444984	0.931555028	1	2	1	49	2	0	0
11	1	1	15.9972234	16.24720763	1.178155786	2	1	1	54	2	2058701000	3
11	1	2	25.99728559	26.24728732	1.185806076	2	1	1	54	1	20	0
11	1	3	35.99736286	36.24736369	1.035710006	1	1	1	54	2	3	0
11	1	4	43.99742414	44.24743131	1.061309482	1	2	1	49	1	1	0
11	1	5	53.99750172	54.24750406	1.305454941	1	1	1	54	1	2	0
11	1	6	63.99758172	64.24758466	1.14309299	1	2	1	49	1	0	0
11	1	7	71.997643	72.24764836	0.94896436	1	1	1	54	1	0	0
11	1	8	81.99771907	82.24772503	0.839899357	1	2	1	49	1	0	0
11	1	9	89.99778307	90.24778843	1.578560895	1	1	1	54	1	0	0
11	1	10	99.99786065	100.2478618	0.86842365	1	2	1	49	1	0	0
11	1	11	107.9979228	108.2479222	0.781239689	1	1	1	54	1	0	0
11	1	12	115.9979823	116.2479874	0.801052017	2	2	1	49	2	0	0
11	1	13	123.9980493	124.2480483	1.38286224	2	1	1	54	1	0	0
11	1	14	133.9981236	134.2481211	1.648683772	2	2	1	49	1	0	0
11	1	15	141.9981867	142.2481854	1.000534914	2	1	1	54	1	0	0
11	1	16	149.9982431	150.2482494	1.219201343	1	2	1	49	2	0	0
11	1	17	159.9983207	160.2483233	1.082189221	1	2	0	54	1	0	0
11	1	18	167.9983814	168.2483885	1.65891354	1	2	1	49	1	0	0
11	1	19	177.998452	178.2484607	0.852747545	2	1	1	54	2	0	0
11	1	20	185.998558	186.2485238	1.500130559	2	2	1	49	1	0	0
11	1	21	193.9985876	194.2485887	1.274353885	2	1	1	54	1	0	1
11	1	22	203.999085	204.2486632	0.91138427	1	1	1	54	2	0	0
11	1	23	211.998727	212.2487248	1.259096775	1	1	1	54	1	0	0
11	1	24	219.9988043	220.2487843	0.940920734	2	2	1	49	2	0	0
11	1	25	227.998842	228.2488492	0.795792537	1	1	1	54	2	0	0
11	1	26	237.9989401	238.2489376	0.879968666	1	2	1	49	1	0	0
11	1	27	245.9989875	246.2489917	0.880605913	2	1	1	54	2	0	0
11	1	28	255.9990742	256.2490871	0.948249532	2	2	1	49	1	0	0
11	1	29	265.9991548	266.2491559	1.464964825	2	1	1	54	1	0	0
11	1	30	275.9992166	276.2492123	1.569832024	2	2	1	49	1	0	0
11	1	31	285.9992909	286.2492911	1.225655926	1	1	1	54	2	0	0
11	1	32	293.999354	294.2493437	0.952521293	2	2	1	49	2	0	0
11	1	33	301.9994174	302.2494134	1.500130257	2	1	1	54	1	0	0
11	1	34	309.9994738	310.2494771	0.841352558	1	2	1	49	2	0	0
11	1	35	317.9995384	318.2495369	1.360036647	1	1	1	54	1	0	0
11	1	36	325.9995982	326.2495984	1.250217573	2	2	1	49	2	0	0
11	1	37	335.9996764	336.2496842	1.000113503	2	2	1	49	1	0	0
11	1	38	345.9997494	346.2497575	0.969458611	2	2	1	49	1	0	0
11	1	39	355.999831	356.2498336	1.003295514	1	1	1	54	2	0	0
11	1	40	365.9999055	366.2499073	0.845061332	2	2	1	49	2	0	0
11	1	41	375.9999807	376.2499827	0.819892625	1	1	0	49	2	0	2
11	1	42	384.0000408	384.2500434	1.072731032	2	1	1	54	2	0	0
11	1	43	392.0001144	392.2501183	0.914630277	2	1	1	54	1	0	0
11	1	44	400.0001857	400.2501901	1.062189131	1	2	1	49	2	0	0
11	1	45	410.0002433	410.2502463	1.27030913	1	1	1	54	1	0	0
11	1	46	418.0003091	418.2503048	0.862986973	2	2	1	49	2	0	0
11	1	47	428.0003831	428.2503842	0.800828633	2	1	1	54	1	0	0
11	1	48	438.000467	438.2504669	1.122615341	1	2	1	49	2	0	0
11	1	49	448.0005391	448.2505406	1.297368449	2	1	1	54	2	0	0
11	1	50	458.0006101	458.2506148	0.851263854	1	2	1	49	2	0	0
11	1	51	468.000691	468.2506906	0.95492931	2	1	1	54	2	0	0
11	1	52	476.0007535	476.2507555	0.893817553	2	2	0	54	1	0	0
11	1	53	484.0008157	484.2508186	1.22265081	1	1	1	54	2	0	0
11	1	54	492.0008908	492.2508796	0.893593867	2	2	1	49	2	0	0
11	1	55	500.0009406	500.2509412	0.875419788	1	1	1	54	2	0	0
11	1	56	510.0010143	510.2510175	0.873157877	2	2	1	49	2	0	0
11	1	57	518.0010771	518.25108	0.84906443	1	2	1	49	2	0	0
11	1	58	528.0011565	528.2511552	1.061820246	2	2	1	49	2	0	0
11	1	59	536.0012159	536.2512131	1.459566485	2	1	1	54	1	0	0
11	1	60	546.0012953	546.2512946	1.158420737	1	2	1	49	2	0	0
11	2	1	13.99381861	14.24381944	1.551134503	1	1	1	54	1	2115013000	3
11	2	2	21.99389045	22.24388827	0.881890974	1	2	1	49	1	20	0
11	2	3	31.99395264	32.24395317	0.919778065	2	1	1	54	2	3	0
11	2	4	41.99402388	42.24402984	1.031661628	2	2	1	49	1	1	0
11	2	5	51.99411233	52.24411739	1.379290213	2	1	1	54	1	2	0
11	2	6	59.99416425	60.24416538	0.754317419	2	2	1	49	1	0	0
11	2	7	67.99423942	68.24424055	0.839069214	2	1	1	54	1	0	0
11	2	8	77.99431609	78.2442973	0.956745359	2	1	1	54	1	0	0
11	2	9	87.99438763	88.24439299	1.25010739	1	1	1	54	2	0	0
11	2	10	97.99445797	98.24445789	1.064438062	1	1	1	54	1	0	0
11	2	11	105.9945105	106.2445107	0.836114813	1	2	1	49	1	0	0
11	2	12	113.9945869	114.2445868	1.608999346	2	2	0	54	2	0	0
11	2	13	123.9946693	124.2446719	0.976927175	2	1	1	54	1	0	0
11	2	14	131.9947278	132.2447263	1.14474784	2	2	1	49	1	0	0
11	2	15	139.9947795	140.244773	0.859515167	2	1	1	54	1	0	0
11	2	16	147.9948453	148.2448494	0.795341543	2	2	1	49	1	0	0
11	2	17	157.9949337	158.244927	0.855271781	1	2	1	49	2	0	0
11	2	18	167.9949953	168.244997	1.000113503	1	1	1	54	1	0	0
11	2	19	175.9950596	176.2450574	1.035833169	2	2	1	49	2	0	0
11	2	20	185.9951296	186.245135	0.813850396	2	2	1	49	1	0	0
11	2	21	195.9951948	196.2451948	0.953434752	2	1	1	54	1	0	1
11	2	22	205.9952703	206.2452763	0	1	2	0	0	2	0	0
11	2	23	213.9953406	214.2453418	0.871279038	1	1	1	54	1	0	0
11	2	24	223.9954077	224.2454121	1.038061572	2	2	1	49	2	0	0
11	2	25	231.9954858	232.2454867	1.43169755	1	1	1	54	2	0	0
11	2	26	239.9955308	240.2455289	0.854521936	2	2	1	49	2	0	0
11	2	27	247.9955906	248.2456077	0.915577847	1	1	1	54	2	0	0
11	2	28	255.9956648	256.2456669	1.203220047	1	1	1	54	1	0	0
11	2	29	265.9957424	266.2457439	0	1	1	0	0	1	0	0
11	2	30	275.995814	276.2458157	1.000112296	2	1	1	54	2	0	0
11	2	31	285.995894	286.2458984	0.891694804	1	2	1	49	2	0	0
11	2	32	295.9959728	296.2459793	1.114417459	2	2	1	49	2	0	0
11	2	33	303.9960334	304.2460201	0.954290553	2	1	1	54	1	0	0
11	2	34	313.9960908	314.2461333	1.129106752	2	2	1	49	1	0	0
11	2	35	321.9961659	322.2461695	1.154118789	1	1	1	54	2	0	0
11	2	36	331.9962432	332.2462465	0.918695258	1	2	1	49	1	0	0
11	2	37	339.9963066	340.2463093	0.819657468	1	2	1	49	1	0	0
11	2	38	347.9963652	348.2463542	1.06953272	2	1	1	54	2	0	0
11	2	39	357.9964313	358.24643	1.023319754	2	2	1	49	1	0	0
11	2	40	365.9965034	366.2465037	1.517031954	2	2	1	49	1	0	0
11	2	41	375.9965819	376.2465837	0.873941833	1	1	1	54	2	0	2
11	2	42	385.9966562	386.2466676	1.146826215	2	2	1	49	2	0	0
11	2	43	395.9967353	396.2467367	1.217470119	1	1	1	54	2	0	0
11	2	44	403.9967905	404.2467971	1.301385432	2	2	1	49	2	0	0
11	2	45	411.9968584	412.2468544	1.064227054	1	1	1	54	2	0	0
11	2	46	419.9968995	420.2469224	0.973051165	2	2	1	49	2	0	0
11	2	47	427.9969783	428.2469688	0.947874006	2	1	1	54	1	0	0
11	2	48	435.9970842	436.2470256	1.078837257	1	1	1	54	2	0	0
11	2	49	445.9971017	446.2471023	0.957347892	2	1	1	54	2	0	0
11	2	50	455.9971814	456.2471814	0.965332049	2	1	1	54	1	0	0
11	2	51	463.9972575	464.2472541	1.45826452	1	2	1	49	2	0	0
11	2	52	471.9973118	472.2473033	1.323130029	2	2	1	49	2	0	0
11	2	53	481.9973749	482.2473655	0.937862187	2	1	1	54	1	0	0
11	2	54	491.9974685	492.2474672	0.853635948	1	2	1	49	2	0	0
11	2	55	499.9975135	500.2475379	1.096620415	2	1	1	54	2	0	0
11	2	56	509.997601	510.2475904	0	1	2	0	0	2	0	0
11	2	57	519.9976635	520.2476689	0.915076441	1	2	1	49	1	0	0
11	2	58	529.9977577	530.2477582	0.793869022	2	1	1	54	2	0	0
11	2	59	537.9978184	538.2478159	1.066690313	2	2	1	49	1	0	0
11	2	60	545.9978676	546.247869	1.077564574	1	2	1	49	2	0	0
11	3	1	13.99231862	14.24232156	0.854271082	2	2	1	49	2	2111525999	1
11	3	2	21.99236903	22.2423919	1.000100825	2	1	1	54	1	20	0
11	3	3	31.99243876	32.24244231	0.812165962	1	1	1	54	2	3	0
11	3	4	39.99250366	40.24250631	1.000119842	2	2	1	49	2	1	0
11	3	5	49.99258879	50.24259053	1.330644779	2	1	1	54	1	2	0
11	3	6	57.99264917	58.2426515	1.026294381	1	1	1	54	2	0	0
11	3	7	67.99273127	68.2427321	0.970035485	2	1	1	54	2	0	0
11	3	8	75.99277505	76.24277255	1.169039012	2	1	1	54	1	0	0
11	3	9	85.99286379	86.24286553	0.867784592	2	1	1	54	1	0	0
11	3	10	93.99290485	94.2429096	1.113578864	2	2	1	49	1	0	0
11	3	11	101.9929818	102.2429836	1.173462614	2	2	1	49	1	0	0
11	3	12	111.9930627	112.2430669	0.830321326	2	2	1	49	1	0	0
11	3	13	119.9931687	120.2431031	1.041080875	2	1	1	54	1	0	0
11	3	14	129.9931783	130.2431813	0	2	2	0	0	1	0	0
11	3	15	139.9932484	140.2432679	0.830862276	2	1	1	54	1	0	0
11	3	16	149.993332	150.2433328	0.847544515	1	2	1	49	2	0	0
11	3	17	157.9934041	158.2434107	0.935481037	2	2	1	49	2	0	0
11	3	18	167.9934856	168.2434844	0.866110723	1	2	1	49	2	0	0
11	3	19	177.9935587	178.2435432	1.332897031	2	1	1	54	2	0	0
11	3	20	185.993607	186.243603	1.05280973	1	2	1	49	2	0	0
11	3	21	193.9936484	194.2436649	1.161833377	2	2	1	49	2	0	2
11	3	22	203.9937537	204.2437491	1.061352347	2	1	1	54	1	0	0
11	3	23	211.9938132	212.2438137	1.071346657	1	1	1	54	2	0	0
11	3	24	221.9938826	222.2438868	1.75011056	2	2	1	49	2	0	0
11	3	25	231.9939665	232.2439671	1.216933394	1	1	1	54	2	0	0
11	3	26	241.9940378	242.2440452	1.896624641	2	1	0	49	2	0	0
11	3	27	249.9940903	250.2440941	1.303560405	2	1	1	54	1	0	0
11	3	28	259.9941633	260.2441639	1.079303646	1	1	1	54	2	0	0
11	3	29	269.9942385	270.2442384	1.275155048	2	1	1	54	2	0	0
11	3	30	279.9943101	280.244313	0.909097303	1	2	1	49	2	0	0
11	3	31	289.9943873	290.2443876	1.270711523	2	2	1	49	2	0	0
11	3	32	297.9944643	298.2444657	0.879707548	1	2	1	49	2	0	0
11	3	33	305.9945108	306.2445174	0	1	1	0	0	1	0	0
11	3	34	313.9945805	314.2445805	1.000106258	2	2	1	49	2	0	0
11	3	35	323.9946457	324.2446517	0.924117747	1	1	1	54	2	0	0
11	3	36	331.9947236	332.2447386	0.944976356	2	2	1	49	2	0	0
11	3	37	339.9947891	340.2447881	1.078797712	2	2	1	49	1	0	0
11	3	38	349.9948416	350.2448464	1.015689992	1	2	1	49	2	0	0
11	3	39	357.9949081	358.2449047	0	1	1	0	0	1	0	0
11	3	40	365.9949633	366.244978	0.819359221	2	2	1	49	2	0	0
11	3	41	375.9950569	376.2450607	0.826019377	1	2	1	49	2	0	3
11	3	42	383.9951221	384.2451175	1.338004972	1	1	1	54	1	0	0
11	3	43	391.9951604	392.2451643	1.045784915	1	1	1	54	1	0	0
11	3	44	401.9952374	402.2452397	1.255566406	1	2	1	49	1	0	0
11	3	45	411.9953114	412.2453149	0.846382013	1	1	1	54	1	0	0
11	3	46	421.9953886	422.2454553	1.467062519	2	1	1	54	2	0	0
11	3	47	431.9954801	432.2454843	1.035044382	2	1	1	54	1	0	0
11	3	48	439.9955468	440.2455452	1.440701727	2	1	1	54	1	0	0
11	3	49	449.9956175	450.2456213	1.750115692	1	1	1	54	2	0	0
11	3	50	457.9956763	458.2456814	0	1	2	0	0	1	0	0
11	3	51	465.9957213	466.2457245	1.458235238	1	2	1	49	1	0	0
11	3	52	473.9958034	474.2458073	1.376186387	1	2	1	49	1	0	0
11	3	53	483.9958783	484.2458824	1.000101428	2	1	1	54	2	0	0
11	3	54	491.9959374	492.2459395	1.315665087	2	2	0	54	1	0	0
11	3	55	501.9960132	502.2460008	1.160516318	2	1	1	54	1	0	0
11	3	56	509.9960612	510.246062	1.683326063	2	2	1	49	1	0	0
11	3	57	517.9961415	518.2461426	1.086136774	1	2	1	49	2	0	0
11	3	58	527.9962179	528.2462181	0.909047797	1	2	1	49	1	0	0
11	3	59	535.9962616	536.2462576	0	1	1	0	0	1	0	0
11	3	60	545.9963344	546.2463452	1.04360964	1	2	1	49	1	0	0
11	4	1	15.99369786	16.24370322	0.811666367	1	2	1	49	1	2126588000	1
11	4	2	25.99376337	26.24376873	0.915123533	2	2	1	49	2	20	0
11	4	3	33.99384004	34.24384329	0.932865636	2	1	1	54	1	3	0
11	4	4	41.99388532	42.24389279	0.809714175	2	2	1	49	1	1	0
11	4	5	51.99395928	52.24396162	0.953608025	1	1	1	54	2	2	0
11	4	6	59.99402026	60.2440226	1.022238758	2	1	1	54	2	0	0
11	4	7	67.99410327	68.24409474	0.725184556	2	2	1	49	1	0	0
11	4	8	77.99417451	78.24417504	0.704083847	1	2	1	49	2	0	0
11	4	9	85.99421829	86.24421972	0.887903619	1	2	1	49	1	0	0
11	4	10	93.99427504	94.2442979	0.842860399	2	1	1	54	2	0	0
11	4	11	103.9943514	104.2443574	0.750108145	2	2	1	49	1	0	0
11	4	12	111.994426	112.2444283	0.785418777	2	1	1	54	1	0	0
11	4	13	121.9945048	122.2445083	0.789084081	2	2	1	49	1	0	0
11	4	14	129.9945494	130.2445491	1.267155495	1	2	1	49	2	0	0
11	4	15	137.9946077	138.2446076	0.844799008	2	1	1	54	2	0	0
11	4	16	147.9946934	148.2446958	0.683702193	1	2	1	49	2	0	0
11	4	17	157.9947568	158.2447643	0.899419655	1	1	1	54	1	0	0
11	4	18	167.9948501	168.2448482	0.947393731	2	1	1	54	2	0	0
11	4	19	175.9949059	176.2449083	0.848053165	2	1	1	54	1	0	0
11	4	20	185.9949844	186.2449904	1.020998374	1	1	1	54	2	0	0
11	4	21	193.9950321	194.2450308	1.074869479	2	2	1	49	2	0	3
11	4	22	203.9951106	204.2451093	0.838608863	2	2	1	49	1	0	0
11	4	23	211.9951828	212.2451824	0.912378026	1	1	1	54	2	0	0
11	4	24	219.9952389	220.2452464	0.866370935	1	2	1	49	1	0	0
11	4	25	229.9953135	230.2453191	1.146151838	1	1	1	54	1	0	0
11	4	26	239.9953754	240.245381	1.351977022	1	1	1	54	1	0	0
11	4	27	249.9954508	250.245455	0.750115088	1	2	1	49	1	0	0
11	4	28	259.9955435	260.2455313	0.808408587	1	2	1	49	1	0	0
11	4	29	269.9956002	270.2456047	0.814259732	1	2	1	49	1	0	0
11	4	30	279.9956775	280.2456793	0.889878754	1	1	1	54	1	0	0
11	4	31	289.9957581	290.245758	1.167912434	1	2	1	49	1	0	0
11	4	32	297.9958288	298.2458323	0.852779543	1	1	1	54	1	0	0
11	4	33	305.9958919	306.2458939	0.878579159	2	2	1	49	2	0	0
11	4	34	315.9959797	316.2459675	0.687287201	2	2	1	49	1	0	0
11	4	35	323.996028	324.2460264	0.902070979	1	1	1	54	2	0	0
11	4	36	333.9960986	334.2460832	0.841957808	1	2	1	49	1	0	0
11	4	37	341.9961433	342.2461417	1.136743759	1	1	1	54	1	0	0
11	4	38	349.9962254	350.246225	0.881779886	1	1	1	54	1	0	0
11	4	39	357.9962722	358.2462685	0.750122937	2	1	1	54	2	0	0
11	4	40	365.9963471	366.2463319	0.870386409	2	1	1	54	1	0	0
11	4	41	375.9964195	376.246417	0.928047792	1	2	1	49	2	0	2
11	4	42	385.9964956	386.2464955	1.060837055	1	2	1	49	1	0	0
11	4	43	395.9965656	396.2465752	1.000102938	2	1	1	54	2	0	0
11	4	44	403.9966133	404.2466178	0.843652505	1	2	1	49	2	0	0
11	4	45	411.9966752	412.24668	0.869440952	2	1	1	54	2	0	0
11	4	46	421.9967555	422.2467548	1.000108975	2	1	1	54	1	0	0
11	4	47	431.9968403	432.2468427	0.848323339	1	2	1	49	2	0	0
11	4	48	441.9969092	442.24691	0.872926644	1	2	1	49	1	0	0
11	4	49	451.9969837	452.2469885	0.774492594	2	2	1	49	2	0	0
11	4	50	459.9970519	460.2470579	1.039523227	1	1	1	54	2	0	0
11	4	51	469.9971174	470.2471349	0.898396014	2	2	1	49	2	0	0
11	4	52	477.9972122	478.2471783	0.909077682	2	1	1	54	1	0	0
11	4	53	485.9972563	486.2472577	0.77608194	1	2	1	49	2	0	0
11	4	54	493.9973146	494.247316	0.950746902	2	2	1	49	2	0	0
11	4	55	501.997362	502.2473652	0.896588417	1	1	1	54	2	0	0
11	4	56	509.9974247	510.2474241	0.787442815	2	2	1	49	2	0	0
11	4	57	517.9974896	518.247498	0.9082735	2	1	1	54	1	0	0
11	4	58	525.9975558	526.2475548	0.958110113	1	1	1	54	2	0	0
11	4	59	535.9976164	536.2476493	0.797883288	2	1	1	54	2	0	0
11	4	60	545.9977094	546.2477063	0.93376702	1	1	1	54	2	0	0
12	1	1	15.99339335	16.24339607	1.379992417	2	2	1	49	1	2077391000	2
12	1	2	25.99335169	26.24335924	1.80877761	1	1	1	54	2	21	0
12	1	3	33.99330159	34.2433206	1.207678635	2	2	1	49	2	1	0
12	1	4	43.99327381	44.24327955	1.25944721	1	1	1	54	2	2	0
12	1	5	53.99323397	54.24322702	1.412235067	1	2	1	49	1	3	0
12	1	6	61.99318989	62.24320921	1.57208539	2	1	1	54	2	0	0
12	1	7	69.99317178	70.24316484	1.172957361	2	2	1	49	1	0	0
12	1	8	77.99314401	78.2431419	1.441831858	2	1	1	54	1	0	0
12	1	9	87.99310084	88.24310326	1.426552589	1	1	1	54	2	0	0
12	1	10	95.99306734	96.24306885	1.172391965	2	1	1	54	2	0	0
12	1	11	105.9930248	106.2430284	1.406322712	2	1	1	54	1	0	0
12	1	12	113.9929961	114.2429928	1.069022955	1	1	1	54	2	0	0
12	1	13	123.9929433	124.2429581	1.204848336	1	2	1	49	1	0	0
12	1	14	131.9929236	132.2429152	0	2	2	0	0	2	0	0
12	1	15	139.9928838	140.2428871	1.05262829	1	1	0	49	2	0	0
12	1	16	149.9928506	150.2428581	1.388287705	1	2	1	49	1	0	0
12	1	17	157.9928059	158.2428171	1.194174039	2	1	1	54	2	0	0
12	1	18	165.9927848	166.2427839	0	2	2	0	0	1	0	0
12	1	19	175.9927458	176.2427431	1.287812688	2	2	1	49	1	0	0
12	1	20	185.9926918	186.2427078	1.137569867	2	2	1	49	1	0	0
12	1	21	193.9926752	194.242677	1.40546994	1	2	1	49	2	0	3
12	1	22	203.9926305	204.242639	1.804219126	1	1	1	54	1	0	0
12	1	23	213.9925783	214.2425904	1.965007951	2	2	1	49	2	0	0
12	1	24	223.9925502	224.2425602	1.354840005	2	1	1	54	1	0	0
12	1	25	231.9925207	232.242521	1.223675441	1	2	1	49	2	0	0
12	1	26	239.9924884	240.242489	1.500115313	2	1	1	54	2	0	0
12	1	27	249.9924494	250.2424542	1.610304994	1	2	1	49	2	0	0
12	1	28	259.9924111	260.2424343	1.799103095	2	1	1	54	2	0	0
12	1	29	267.9923746	268.2423779	1.26996997	1	1	1	54	2	0	0
12	1	30	275.9923392	276.2423471	1.028847559	2	1	1	54	2	0	0
12	1	31	283.9923124	284.2423154	1.902620321	1	1	1	54	2	0	0
12	1	32	291.9922786	292.2422792	1.312570561	1	1	1	54	1	0	0
12	1	33	299.9922345	300.2422448	1.795319803	2	2	1	49	2	0	0
12	1	34	309.9921904	310.242207	0	1	2	0	0	2	0	0
12	1	35	319.9921626	320.2421617	1.105002107	2	1	1	54	2	0	0
12	1	36	330.0087991	330.2587907	1.1170505	2	2	1	49	1	0	0
12	1	37	338.0087635	338.2587623	1.346976386	1	1	1	54	2	0	0
12	1	38	348.0087188	348.2587176	1.448776898	1	2	1	49	1	0	0
12	1	39	356.0086874	356.2586959	1.326568709	2	2	1	49	2	0	0
12	1	40	366.008647	366.2586512	1.093200037	1	2	1	49	2	0	0
12	1	41	376.0086135	376.2586125	1.335118169	2	2	1	49	2	0	1
12	1	42	386.0085697	386.2585664	1.109925246	2	1	1	54	1	0	0
12	1	43	394.0085316	394.258538	1.157853175	1	2	1	49	2	0	0
12	1	44	402.0085075	402.2585018	1.346684783	1	1	1	54	1	0	0
12	1	45	410.0084764	410.2584752	1.203421112	1	2	1	49	1	0	0
12	1	46	420.0084408	420.2584275	1.159298511	1	1	1	54	1	0	0
12	1	47	428.0084061	428.258394	0	1	2	0	0	1	0	0
12	1	48	436.0083653	436.2583735	1.579000243	2	1	1	54	2	0	0
12	1	49	446.0083288	446.2583324	0	2	1	0	0	1	0	0
12	1	50	456.0082859	456.2582896	1.006545671	2	1	1	54	1	0	0
12	1	51	464.0082554	464.2582591	1.852349003	1	1	1	54	2	0	0
12	1	52	474.0082177	474.2582171	1.798150102	1	1	1	54	1	0	0
12	1	53	484.0081821	484.2581727	1.528055159	1	2	1	49	1	0	0
12	1	54	492.0081428	492.2581441	1.445875358	1	2	1	49	1	0	0
12	1	55	500.0081154	500.2581075	1.305644841	2	1	1	54	2	0	0
12	1	56	508.0080888	508.2580804	1.220585234	2	2	1	49	1	0	0
12	1	57	518.0080408	518.2580366	1.250145801	2	1	1	54	1	0	0
12	1	58	528.0079979	528.2579967	1.702157499	2	2	1	49	1	0	0
12	1	59	538.0079614	538.2579647	1.322958689	2	2	1	49	1	0	0
12	1	60	546.0079309	546.2579297	1.453812633	2	2	1	49	1	0	0
12	2	1	15.99315729	16.24315458	1.250109577	2	2	1	49	2	2127625000	3
12	2	2	25.99312469	26.24310386	1.049510614	2	2	1	49	1	20	0
12	2	3	35.99306613	36.24308152	1.041253059	1	2	1	49	2	1	0
12	2	4	43.99305375	44.2430284	1.01006181	2	1	1	54	2	2	0
12	2	5	53.99300787	54.24299036	0.907840194	2	2	1	49	1	3	0
12	2	6	61.99297225	62.24297466	0	1	1	0	0	2	0	0
12	2	7	69.99293542	70.24293602	1.055624918	2	2	1	49	2	0	0
12	2	8	77.99290705	78.24290614	1.224437351	2	1	1	54	1	0	0
12	2	9	85.99287444	86.24287595	1.6741283	1	2	1	49	2	0	0
12	2	10	93.99284365	94.24284335	1.644996987	2	1	1	54	2	0	0
12	2	11	103.9928029	104.2427954	0.952929976	1	2	1	49	2	0	0
12	2	12	111.992767	112.2427664	1.146678987	1	1	1	54	1	0	0
12	2	13	121.9927292	122.2427075	1.000121048	2	1	1	54	2	0	0
12	2	14	129.9926936	130.2426924	1.250095994	1	1	1	54	2	0	0
12	2	15	139.9926538	140.2426529	1.057092894	2	1	1	54	2	0	0
12	2	16	149.99261	150.2426097	1.783864276	1	2	1	49	2	0	0
12	2	17	159.9925762	160.2425735	1.106778893	2	1	1	54	2	0	0
12	2	18	167.9925354	168.2425388	1.220614515	2	1	1	54	1	0	0
12	2	19	175.9924881	176.2424881	0	1	2	0	0	2	0	0
12	2	20	185.9924561	186.2424548	0.875053883	2	2	1	49	2	0	0
12	2	21	195.9924241	196.2424256	0.890875606	2	2	1	49	1	0	1
12	2	22	203.9923915	204.2423887	1.028907026	1	2	1	49	2	0	0
12	2	23	213.9923564	214.2423746	0	1	2	0	0	1	0	0
12	2	24	223.9922997	224.2422749	1.552522033	1	1	1	54	1	0	0
12	2	25	231.9922728	232.2422746	1.800248074	1	2	1	49	1	0	0
12	2	26	239.9922864	240.2422589	1.461201114	2	1	1	54	2	0	0
12	2	27	247.9922538	248.2422019	1.518933663	2	2	1	49	1	0	0
12	2	28	258.008829	258.2588269	1.594061564	1	1	1	54	2	0	0
12	2	29	266.0087979	266.2587985	1.171052584	1	2	1	49	1	0	0
12	2	30	274.008768	274.2587701	1.108777248	2	1	1	54	2	0	0
12	2	31	284.0087306	284.2587279	1.708623779	2	2	1	49	1	0	0
12	2	32	294.0086793	294.2586934	0.864270009	2	1	1	54	1	0	0
12	2	33	302.008656	302.2586965	1.004176019	2	1	1	54	1	0	0
12	2	34	312.0086195	312.2586168	1.131132566	1	1	1	54	2	0	0
12	2	35	320.0085845	320.2585848	0.969839926	1	1	1	54	1	0	0
12	2	36	328.0085549	328.2585492	1.350665495	1	2	1	49	1	0	0
12	2	37	338.0085102	338.258512	0.846562225	1	1	1	54	1	0	0
12	2	38	348.0084692	348.2584719	0.835353624	1	1	1	54	1	0	0
12	2	39	358.0084284	358.2584272	1.000115011	1	2	1	49	1	0	0
12	2	40	366.0083928	366.258394	1.006030385	1	2	1	49	1	0	0
12	2	41	374.0083644	374.2583593	1.000104144	2	2	1	49	2	0	2
12	2	42	384.0083255	384.2583282	1.000096597	1	2	1	49	2	0	0
12	2	43	394.0082862	394.2582871	1.057404118	1	2	1	49	1	0	0
12	2	44	402.0082515	402.2582349	1.008338455	1	1	1	54	1	0	0
12	2	45	410.0082228	410.2582186	1.869946908	2	2	1	49	2	0	0
12	2	46	420.0081754	420.2581779	1.19770165	1	1	1	54	2	0	0
12	2	47	430.0081395	430.2581386	1.216668518	2	2	1	49	2	0	0
12	2	48	438.0081072	438.2581072	1.250097201	2	1	1	54	1	0	0
12	2	49	446.008071	446.2580695	0.886362703	2	2	1	49	1	0	0
12	2	50	454.0080363	454.2580411	0.916152085	2	1	1	54	1	0	0
12	2	51	464.0079949	464.2579989	0.88206956	2	2	1	49	1	0	0
12	2	52	472.0079575	472.2579629	0	2	1	0	0	1	0	0
12	2	53	482.0079143	482.2579167	0.791628581	1	1	1	54	2	0	0
12	2	54	490.0078884	490.2578968	1.000091164	2	1	1	54	2	0	0
12	2	55	500.0078482	500.2578509	1.00010022	1	1	1	54	2	0	0
12	2	56	510.0078051	510.2578102	1.126117057	2	2	1	49	2	0	0
12	2	57	518.0077827	518.2577734	1.360855598	2	1	1	54	1	0	0
12	2	58	526.0077498	526.2577453	0.887856338	2	1	1	54	1	0	0
12	2	59	536.0077018	536.2577088	0.92752309	2	2	1	49	1	0	0
12	2	60	546.0076587	546.2576668	0	1	2	0	0	2	0	0
12	3	1	15.99744893	16.2474287	1.083022914	2	2	1	49	2	2119743000	3
12	3	2	25.9974115	26.24742116	1.065769137	1	1	1	54	2	20	0
12	3	3	33.99739248	34.24739731	1.26577433	1	2	1	49	1	1	0
12	3	4	43.99734509	44.24734992	1.392420558	2	2	1	49	2	2	0
12	3	5	53.99730735	54.24730826	1.661091597	2	1	1	54	1	3	0
12	3	6	63.99725996	64.24727264	1.156962669	1	2	1	49	2	0	0
12	3	7	73.99721196	74.24722464	1.147816117	1	2	1	49	1	0	0
12	3	8	83.9971857	84.24717936	0.972474918	2	1	1	54	2	0	0
12	3	9	91.99714797	92.24715068	1.087458539	1	2	1	49	2	0	0
12	3	10	101.9971075	102.2471054	1.051246346	1	1	1	54	1	0	0
12	3	11	109.9970767	110.247071	1.011202563	2	1	1	54	2	0	0
12	3	12	117.997042	118.2470423	1.08998999	1	2	1	49	2	0	0
12	3	13	125.9969901	126.247004	0	2	1	0	0	2	0	0
12	3	14	133.9969732	134.2469714	0.979469464	1	2	1	49	2	0	0
12	3	15	141.9969391	142.246943	1.593460246	1	1	1	54	1	0	0
12	3	16	149.9969137	150.2469065	0.87737916	2	1	1	54	2	0	0
12	3	17	159.9968485	160.2468648	1.0791228	1	1	1	54	2	0	0
12	3	18	167.996834	168.246831	1.266875538	2	2	1	49	2	0	0
12	3	19	177.9967869	178.2467866	0.950747482	1	2	1	49	2	0	0
12	3	20	185.9967643	186.2467507	1.406605259	2	1	1	54	2	0	0
12	3	21	195.9967187	196.2467094	0.920397232	1	2	1	49	2	0	2
12	3	22	205.9966786	206.2466656	1.211292882	2	1	1	54	2	0	0
12	3	23	213.9966451	214.2466324	1.000179007	1	2	1	49	2	0	0
12	3	24	223.9966064	224.2465946	0	1	2	0	0	1	0	0
12	3	25	231.9965633	232.2465581	1.000115313	2	1	1	54	2	0	0
12	3	26	241.9965294	242.2465216	1.040470924	2	2	1	49	1	0	0
12	3	27	249.9964971	250.2464893	0.915373572	1	2	1	49	2	0	0
12	3	28	259.9964549	260.246447	1.015142221	1	1	1	54	1	0	0
12	3	29	269.9964114	270.2464033	1.000102936	2	2	1	49	2	0	0
12	3	30	277.9963806	278.2463676	0.857908175	2	1	1	54	1	0	0
12	3	31	285.9963544	286.2463764	0.750085126	2	1	1	54	1	0	0
12	3	32	295.9962886	296.2462976	1.20826969	1	2	1	49	2	0	0
12	3	33	303.9962774	304.2462723	1.066382228	2	1	1	54	2	0	0
12	3	34	311.9962436	312.2462445	0.94616998	2	2	1	49	1	0	0
12	3	35	321.9961992	322.2462049	1.039768179	2	1	1	54	1	0	0
12	3	36	331.9961621	332.2461575	0.907778312	2	1	1	54	1	0	0
12	3	37	339.9961265	340.2461292	1.077614374	2	1	1	54	1	0	0
12	3	38	347.9960948	348.2460926	0.853408253	2	2	1	49	1	0	0
12	3	39	355.9960516	356.24606	1.324196341	1	2	1	49	2	0	0
12	3	40	365.9960232	366.2460214	1.082999067	2	1	1	54	2	0	0
12	3	41	373.9959954	374.2459631	0.965955812	2	2	1	49	1	0	1
12	3	42	383.9959465	384.2459465	1.046666127	2	1	1	54	1	0	0
12	3	43	393.9959043	394.2459073	0.89643357	2	2	1	49	1	0	0
12	3	44	403.9958647	404.2458653	1.095369249	1	2	1	49	2	0	0
12	3	45	413.9958351	414.2458213	0.959140273	1	1	1	54	1	0	0
12	3	46	421.9957911	422.2457893	0.977015894	1	2	1	49	1	0	0
12	3	47	431.9957494	432.2457301	1.000125878	1	2	1	49	1	0	0
12	3	48	441.9957105	442.2457099	1.154510608	1	1	1	54	1	0	0
12	3	49	451.9956752	452.2456667	1.444355159	2	2	1	49	2	0	0
12	3	50	459.9956362	460.2456362	1.50008573	2	1	1	54	1	0	0
12	3	51	467.9956024	468.2455982	0.813996578	2	1	1	54	1	0	0
12	3	52	475.9955722	476.2455692	1.058763724	1	2	1	49	2	0	0
12	3	53	483.9955448	484.2455348	1.890651319	1	1	1	54	1	0	0
12	3	54	493.9954983	494.2454995	1.000102031	2	2	1	49	2	0	0
12	3	55	501.9954678	502.2454626	0.88231377	2	1	1	54	1	0	0
12	3	56	509.9954367	510.2454291	0.879134211	2	1	1	54	1	0	0
12	3	57	519.9953748	520.2453893	0	1	1	0	0	2	0	0
12	3	58	529.9953464	530.2453416	1.107632873	1	2	1	49	1	0	0
12	3	59	537.9953168	538.245319	1.148696662	1	2	1	49	1	0	0
12	3	60	545.9952864	546.2452858	1.385353866	1	1	1	54	1	0	0
12	4	1	13.99307488	14.24308696	1.218586577	2	1	1	54	2	2107327000	1
12	4	2	21.99306462	22.24306311	1.042451167	2	1	1	54	1	20	0
12	4	3	29.9930296	30.24303534	0.768384266	1	1	1	54	2	1	0
12	4	4	39.99298342	40.24296983	1.10615252	1	2	1	49	1	2	0
12	4	5	47.99295353	48.24295172	1.063030002	1	2	1	49	1	3	0
12	4	6	57.99290312	58.24290403	1.040722982	1	2	1	49	1	0	0
12	4	7	67.99287082	68.24285241	0.852455864	1	1	1	54	1	0	0
12	4	8	75.9928349	76.24284124	0.970376041	1	2	1	49	1	0	0
12	4	9	85.99279868	86.24279747	0.855194698	1	1	1	54	1	0	0
12	4	10	93.99274404	94.24276215	0.877110801	1	2	1	49	1	0	0
12	4	11	103.9927211	104.242719	1.02386616	2	2	1	49	2	0	0
12	4	12	113.9926779	114.2426809	0.96877464	2	1	1	54	1	0	0
12	4	13	123.9926326	124.2426176	1.168408234	2	1	1	54	1	0	0
12	4	14	133.9925955	134.242594	1.132302601	1	2	1	49	2	0	0
12	4	15	141.9925596	142.2425626	0.935070957	1	1	1	54	1	0	0
12	4	16	151.9925182	152.2425228	0.889840506	1	1	1	54	1	0	0
12	4	17	161.9924748	162.2424775	1.037661755	1	2	1	49	1	0	0
12	4	18	169.9924422	170.2424473	1.000098107	1	2	1	49	1	0	0
12	4	19	177.9923975	178.2424141	1.220427056	2	1	1	54	2	0	0
12	4	20	185.9923785	186.2423797	0.777194237	2	2	1	49	1	0	0
12	4	21	193.9923833	194.2423589	0.846029733	2	1	1	54	1	0	2
12	4	22	203.9923	204.2422864	1.000123463	1	1	1	54	2	0	0
12	4	23	213.9922589	214.2422511	1.691626891	1	1	1	54	1	0	0
12	4	24	223.9922626	224.2422623	0.797483582	1	2	1	49	1	0	0
12	4	25	231.9922318	232.2588546	1.016596312	2	2	1	49	2	0	0
12	4	26	242.0088054	242.2588082	0.768346533	2	2	1	49	1	0	0
12	4	27	252.0087668	252.2587668	0	1	1	0	0	2	0	0
12	4	28	259.9920639	260.2587411	0.862076346	1	2	1	49	1	0	0
12	4	29	270.0087004	270.2587037	0.826951476	2	1	1	54	2	0	0
12	4	30	278.0086654	278.2586663	0.913674064	2	2	1	49	1	0	0
12	4	31	288.0086228	288.2586316	0.862496242	2	2	1	49	1	0	0
12	4	32	296.0085929	296.2585941	1.102456468	1	1	1	54	2	0	0
12	4	33	304.0085555	304.2585591	0.94617481	2	1	1	54	2	0	0
12	4	34	314.0085166	314.2585099	0.84195997	2	2	1	49	1	0	0
12	4	35	322.0084873	322.258484	1.000098107	1	1	1	54	2	0	0
12	4	36	330.0084465	330.2584417	0.836798055	2	1	1	54	2	0	0
12	4	37	338.0084157	338.2584124	1.432625537	1	2	1	49	2	0	0
12	4	38	346.0083855	346.2583789	1.082335866	2	2	1	49	2	0	0
12	4	39	356.0083511	356.2583424	1.156142196	2	1	1	54	1	0	0
12	4	40	366.0083043	366.2583016	0.879990304	2	2	1	49	1	0	0
12	4	41	374.0082651	374.2582723	0	1	1	0	0	2	0	3
12	4	42	382.0082373	382.2582322	1.194606614	2	1	1	54	2	0	0
12	4	43	392.0081936	392.2581939	1.196430189	1	1	1	54	2	0	0
12	4	44	400.0081607	400.2581631	0.937309296	2	2	1	49	2	0	0
12	4	45	410.0081275	410.2581235	0.796184349	1	2	1	49	2	0	0
12	4	46	420.0080834	420.2580795	0.86688719	1	2	1	49	1	0	0
12	4	47	430.0080363	430.258036	1.061645039	2	1	1	54	2	0	0
12	4	48	438.0080112	438.2580115	0.97658664	1	2	1	49	2	0	0
12	4	49	446.007981	446.2579768	0.914238252	2	1	1	54	2	0	0
12	4	50	456.0079334	456.2579379	0.751199013	2	2	1	49	1	0	0
12	4	51	466.0078962	466.2578929	1.258030249	1	2	1	49	2	0	0
12	4	52	476.0078546	476.2578482	0.815748309	2	1	1	54	2	0	0
12	4	53	484.0078205	484.2578198	1.87654782	2	1	1	54	1	0	0
12	4	54	494.0077815	494.2577797	0.919372698	1	2	1	49	2	0	0
12	4	55	504.0077447	504.2577365	0.949232112	2	1	1	54	2	0	0
12	4	56	514.0077015	514.2577012	0.85606528	2	1	1	54	1	0	0
12	4	57	522.0076674	522.257665	1.065790268	1	2	1	49	2	0	0
12	4	58	530.0076285	530.257627	0	1	2	0	0	1	0	0
12	4	59	538.0075965	538.2575883	0	2	1	0	0	2	0	0
12	4	60	546.0075596	546.2575608	1.30438153	1	2	1	49	2	0	0
13	1	1	13.99322491	14.2432394	1.066996224	1	1	1	54	1	2094085000	1
13	1	2	23.9931902	24.24320016	0.709823396	2	2	1	49	2	20	0
13	1	3	33.99316393	34.24315095	0.889593277	2	1	1	54	1	1	0
13	1	4	41.99313284	42.2431262	1.064532693	1	1	1	54	2	3	0
13	1	5	51.99306522	52.24309058	0.703294328	1	2	1	49	1	2	0
13	1	6	59.99304621	60.24304409	0.621262441	1	2	0	54	1	0	0
13	1	7	67.99301421	68.24301179	0.769035996	1	2	1	49	1	0	0
13	1	8	77.9929801	78.24297165	0.654849906	2	1	1	54	2	0	0
13	1	9	87.99294659	88.24294418	0.691566819	2	2	1	49	1	0	0
13	1	10	95.99291218	96.24291188	1.106448953	2	2	1	49	1	0	0
13	1	11	103.9928702	104.2428717	0.828180072	2	1	1	54	1	0	0
13	1	12	113.9928231	114.2428271	1.017077487	1	1	1	54	2	0	0
13	1	13	121.9928098	122.2427978	1.000111389	1	1	1	54	1	0	0
13	1	14	129.9927785	130.2427745	0.936750843	2	1	1	54	2	0	0
13	1	15	137.9927338	138.2427468	0.893526898	2	2	1	49	1	0	0
13	1	16	147.9927	148.242693	0.828444205	2	2	1	49	1	0	0
13	1	17	157.9926483	158.2426686	0.922240126	2	1	1	54	1	0	0
13	1	18	165.992601	166.2426215	1.085059305	2	2	1	49	1	0	0
13	1	19	175.9925844	176.2425804	1.064746414	2	2	1	49	1	0	0
13	1	20	185.992546	186.2425475	0.8505532	2	1	1	54	1	0	0
13	1	21	195.9925101	196.2425092	1.417475165	1	1	1	54	2	0	3
